onset	duration	value	response	rt	good	Bd1	Bd2	F	Resp	buena	nt	prob	ttF	ttp	ttr
15.9832	1	10	2	1032.9	1	3	7	0	2	0	1	0.85	20564	17032	18065
19.5147	1	30	-99	-99	1	3	7	0	2	0	1	0.85	20564	17032	18065
22.4825	1	10	2	1013.6	1	4	6	0	2	0	2	0.85	26781	23532	24545
25.7322	1	30	-99	-99	1	4	6	0	2	0	2	0.85	26781	23532	24545
29.0814	1	10	1	422.6	1	4	6	1	1	0	3	0.85	32750	30130	30553
31.701	1	31	-99	-99	1	4	6	1	1	0	3	0.85	32750	30130	30553
34.702	1	10	1	482.1	1	5	6	0	1	0	4	0.85	38520	35751	36233
37.4708	1	30	-99	-99	1	5	6	0	1	0	4	0.85	38520	35751	36233
40.1899	1	10	1	1266.2	1	2	2	1	1	0	5	0.85	44472	41239	42505
43.423	1	31	-99	-99	1	2	2	1	1	0	5	0.85	44472	41239	42505
46.0261	1	10	1	677.9	1	7	8	1	1	0	6	0.85	49711	47075	47753
48.6623	1	31	-99	-99	1	7	8	1	1	0	6	0.85	49711	47075	47753
51.2156	1	10	1	760.5	1	2	8	1	1	0	7	0.85	54801	52265	53025
53.7524	1	31	-99	-99	1	2	8	1	1	0	7	0.85	54801	52265	53025
56.9191	1	10	1	624.9	1	8	8	1	1	0	8	0.85	60770	57968	58593
59.7211	1	31	-99	-99	1	8	8	1	1	0	8	0.85	60770	57968	58593
62.5231	1	10	2	1245	1	6	4	1	2	0	9	0.85	66424	63572	64817
65.3749	1	31	-99	-99	1	6	4	1	2	0	9	0.85	66424	63572	64817
68.3096	1	10	2	682.4	1	5	5	0	2	0	10	0.85	71580	69359	70041
70.5313	1	30	-99	-99	1	5	5	0	2	0	10	0.85	71580	69359	70041
74.0296	1	10	1	826.5	1	3	5	1	1	0	11	0.85	77798	75079	75905
76.7488	1	31	-99	-99	1	3	5	1	1	0	11	0.85	77798	75079	75905
80.1974	1	10	1	682.6	1	2	3	1	1	0	12	0.85	84065	81246	81929
83.016	1	31	-99	-99	1	2	3	1	1	0	12	0.85	84065	81246	81929
85.7849	1	10	1	783.1	1	7	2	1	1	0	13	0.85	89155	86834	87617
88.106	1	31	-99	-99	1	7	2	1	1	0	13	0.85	89155	86834	87617
91.422	1	10	1	986	1	5	7	1	1	0	14	0.85	95588	92471	93457
94.5391	1	31	-99	-99	1	5	7	1	1	0	14	0.85	95588	92471	93457
97.7887	1	10	1	539.3	1	3	7	1	1	0	15	0.85	101640	98838	99377
100.5907	1	31	-99	-99	1	3	7	1	1	0	15	0.85	101640	98838	99377
103.1606	1	10	1	647.5	1	3	7	1	1	0	16	0.85	107045	104210	104857
105.9958	1	31	-99	-99	1	3	7	1	1	0	16	0.85	107045	104210	104857
108.7978	1	10	1	442.3	1	5	4	0	1	1	17	0.15	112019	109847	110289
110.9698	1	30	-99	-99	1	5	4	0	1	1	17	0.15	112019	109847	110289
113.7387	1	10	2	925.4	1	2	3	1	2	1	18	0.15	117756	114788	115713
116.7065	1	31	-99	-99	1	2	3	1	2	1	18	0.15	117756	114788	115713
119.5251	1	10	2	651	1	6	4	0	2	1	19	0.15	122862	120574	121225
121.8131	1	30	-99	-99	1	6	4	0	2	1	19	0.15	122862	120574	121225
124.4161	1	10	1	479.9	1	7	7	0	1	1	20	0.15	127770	125465	125945
126.7208	1	30	-99	-99	1	7	7	0	1	1	20	0.15	127770	125465	125945
130.2025	1	10	1	717.6	1	2	2	0	1	1	21	0.15	134219	131252	131969
133.1704	1	30	-99	-99	1	2	2	0	1	1	21	0.15	134219	131252	131969
135.8563	1	10	2	527.8	1	2	2	0	2	1	22	0.15	139641	136905	137433
138.592	1	30	-99	-99	1	2	2	0	2	1	22	0.15	139641	136905	137433
141.7256	1	10	1	378.5	1	5	6	1	1	1	23	0.15	145129	142775	143153
144.08	1	31	-99	-99	1	5	6	1	1	1	23	0.15	145129	142775	143153
146.8157	1	10	1	560.4	1	3	8	0	1	1	24	0.15	150402	147865	148425
149.3524	1	30	-99	-99	1	3	8	0	1	1	24	0.15	150402	147865	148425
152.0715	1	10	2	792.6	1	5	7	1	2	1	25	0.15	156287	153121	153913
155.2383	1	31	-99	-99	1	5	7	1	2	1	25	0.15	156287	153121	153913
157.8911	1	10	2	629	1	3	5	1	2	1	26	0.15	161610	158940	159569
160.5605	1	31	-99	-99	1	3	5	1	2	1	26	0.15	161610	158940	159569
163.2464	1	10	2	529.7	1	5	3	1	2	1	27	0.15	166517	164296	164825
165.4681	1	31	-99	-99	1	5	3	1	2	1	27	0.15	166517	164296	164825
168.5354	1	10	2	560.7	1	5	6	1	2	1	28	0.15	171906	169585	170145
170.8566	1	31	-99	-99	1	5	6	1	2	1	28	0.15	171906	169585	170145
173.6586	1	10	2	837.5	1	2	7	1	2	1	29	0.15	177361	174708	175545
176.3114	1	31	-99	-99	1	2	7	1	2	1	29	0.15	177361	174708	175545
179.5943	1	10	2	853.8	1	4	8	1	2	1	30	0.15	183777	180643	181497
182.7279	1	31	-99	-99	1	4	8	1	2	1	30	0.15	183777	180643	181497
185.762	1	10	2	1470.1	1	4	4	1	2	1	31	0.15	190757	186811	188281
189.708	1	31	3	4004.1	1	4	4	1	2	1	31	0.15	190757	186811	188281
194.7318	1	10	1	1364.3	1	6	6	0	1	0	32	0.15	198782	195781	197145
197.7327	1	30	-99	-99	1	6	6	0	1	0	32	0.15	198782	195781	197145
201.0488	1	10	2	663.3	1	5	3	1	2	0	33	0.15	205049	202098	202761
204	1	31	-99	-99	1	5	3	1	2	0	33	0.15	205049	202098	202761
206.918	1	10	2	522.1	1	6	3	1	2	0	34	0.15	210852	207967	208489
209.803	1	31	-99	-99	1	6	3	1	2	0	34	0.15	210852	207967	208489
212.7044	1	10	2	543.7	1	5	4	1	2	0	35	0.15	216672	213754	214297
215.6225	1	31	-99	-99	1	5	4	1	2	0	35	0.15	216672	213754	214297
218.2919	1	10	2	756.2	1	5	6	1	2	0	36	0.15	222425	219341	220097
221.3758	1	31	-99	-99	1	5	6	1	2	0	36	0.15	222425	219341	220097
224.2773	1	10	2	690.8	1	5	8	1	2	0	37	0.15	228278	225326	226017
227.2285	1	31	-99	-99	1	5	8	1	2	0	37	0.15	228278	225326	226017
230.0968	1	10	2	863.3	1	5	6	1	2	0	38	0.15	234462	231146	232009
233.4128	1	31	-99	-99	1	5	6	1	2	0	38	0.15	234462	231146	232009
236.2148	1	10	2	625.3	1	8	8	1	2	0	39	0.15	240165	237264	237889
239.1163	1	31	-99	-99	1	8	8	1	2	0	39	0.15	240165	237264	237889
242.366	1	10	2	1234.1	1	8	4	1	2	0	40	0.15	246615	243415	244649
245.5659	1	31	-99	-99	1	8	4	1	2	0	40	0.15	246615	243415	244649
248.3845	1	10	2	807.6	1	2	5	0	2	0	41	0.15	252020	249434	250241
250.971	1	30	-99	-99	1	2	5	0	2	0	41	0.15	252020	249434	250241
253.5741	1	10	1	1026	1	2	7	1	1	0	42	0.15	257541	254623	255649
256.4921	1	31	-99	-99	1	2	7	1	1	0	42	0.15	257541	254623	255649
259.7418	1	10	1	586.3	1	5	3	0	1	0	43	0.15	263593	260791	261377
262.5438	1	30	-99	-99	1	5	3	0	1	0	43	0.15	263593	260791	261377
265.18	1	10	2	860.1	1	4	5	1	2	0	44	0.15	269545	266229	267089
268.496	1	31	-99	-99	1	4	5	1	2	0	44	0.15	269545	266229	267089
271.5965	1	10	2	475.6	1	4	3	1	2	0	45	0.15	275580	272646	273121
274.5311	1	31	-99	-99	1	4	3	1	2	0	45	0.15	275580	272646	273121
277.9466	1	10	2	549.5	1	2	4	1	2	0	46	0.15	281847	278996	279545
280.7984	1	31	-99	-99	1	2	4	1	2	0	46	0.15	281847	278996	279545
283.9651	1	10	2	715	1	4	2	0	2	0	47	0.15	287568	285014	285729
286.5184	1	30	-99	-99	1	4	2	0	2	0	47	0.15	287568	285014	285729
289.6852	1	10	1	962.9	1	3	7	1	1	1	48	0.85	293934	290734	291697
292.8851	1	31	-99	-99	1	3	7	1	1	1	48	0.85	293934	290734	291697
295.6043	1	10	1	483.8	1	3	4	1	1	1	49	0.85	299273	296653	297137
298.2239	1	31	-99	-99	1	3	4	1	1	1	49	0.85	299273	296653	297137
301.258	1	10	1	486.1	1	8	7	1	1	1	50	0.85	304645	302307	302793
303.5958	1	31	-99	-99	1	8	7	1	1	1	50	0.85	304645	302307	302793
306.4476	1	10	1	720.5	1	4	7	1	1	1	51	0.85	310498	307497	308217
309.4485	1	31	-99	-99	1	4	7	1	1	1	51	0.85	310498	307497	308217
312.1511	1	10	1	1081	1	6	6	1	1	1	52	0.85	316052	313200	314281
315.0028	1	31	-99	-99	1	6	6	1	1	1	52	0.85	316052	313200	314281
317.9043	1	10	1	1047.8	1	6	7	1	1	1	53	0.85	321722	318953	320001
320.6732	1	31	-99	-99	1	6	7	1	1	1	53	0.85	321722	318953	320001
323.4586	1	10	1	693.5	1	3	4	1	1	1	54	0.85	327177	324508	325201
326.128	1	31	-99	-99	1	3	4	1	1	1	54	0.85	327177	324508	325201
329.3776	1	10	1	990.5	1	5	5	1	1	1	55	0.85	333245	330427	331417
332.1962	1	31	-99	-99	1	5	5	1	1	1	55	0.85	333245	330427	331417
334.8822	1	10	1	925.9	1	8	2	1	1	1	56	0.85	339231	335931	336857
338.1816	1	31	-99	-99	1	8	2	1	1	1	56	0.85	339231	335931	336857
341.2986	1	10	1	885.5	1	8	6	0	1	1	57	0.85	345481	342348	343233
344.4322	1	30	-99	-99	1	8	6	0	1	1	57	0.85	345481	342348	343233
347.0685	1	10	2	1123.6	1	7	8	0	2	1	58	0.85	351599	348118	349241
350.5502	1	30	-99	-99	1	7	8	0	2	1	58	0.85	351599	348118	349241
353.8662	1	10	2	733.9	1	7	6	0	2	1	59	0.85	357867	354915	355649
356.8175	1	30	-99	-99	1	7	6	0	2	1	59	0.85	357867	354915	355649
359.4537	1	10	1	482.4	1	8	7	1	1	1	60	0.85	362559	360503	360985
361.5096	1	31	3	4314.5	1	8	7	1	1	1	60	0.85	362559	360503	360985
366.8484	1	10	1	1703.8	1	2	4	1	1	1	61	0.75	371595	367897	369601
370.5457	1	31	-99	-99	1	2	4	1	1	1	61	0.75	371595	367897	369601
373.7622	1	10	1	565.9	1	6	7	1	1	1	62	0.75	377166	374811	375377
376.1165	1	31	-99	-99	1	6	7	1	1	1	62	0.75	377166	374811	375377
379.5154	1	10	1	572.7	1	2	4	0	1	1	63	0.75	382720	380565	381137
381.6708	1	30	-99	-99	1	2	4	0	1	1	63	0.75	382720	380565	381137
384.6718	1	10	2	576.3	1	7	6	1	2	1	64	0.75	388026	385721	386297
386.9764	1	31	-99	-99	1	7	6	1	2	1	64	0.75	388026	385721	386297
390.0603	1	10	2	475.8	1	3	6	1	2	1	65	0.75	393746	391109	391585
392.6965	1	31	-99	-99	1	3	6	1	2	1	65	0.75	393746	391109	391585
396.0622	1	10	2	498	1	3	8	0	2	1	66	0.75	399433	397111	397609
398.3834	1	30	-99	-99	1	3	8	0	2	1	66	0.75	399433	397111	397609
401.7823	1	10	1	1089.9	1	8	2	1	1	1	67	0.75	406346	402831	403921
405.2973	1	31	-99	-99	1	8	2	1	1	1	67	0.75	406346	402831	403921
408.2651	1	10	1	559	1	8	7	1	1	1	68	0.75	412000	409314	409873
410.951	1	31	-99	-99	1	8	7	1	1	1	68	0.75	412000	409314	409873
413.952	1	10	1	736.1	1	7	4	1	1	1	69	0.75	417704	415001	415737
416.6546	1	31	-99	-99	1	7	4	1	1	1	69	0.75	417704	415001	415737
419.8711	1	10	1	633	1	7	5	0	1	1	70	0.75	423971	420920	421553
422.9218	1	30	-99	-99	1	7	5	0	1	1	70	0.75	423971	420920	421553
426.0057	1	10	2	834.5	1	7	7	1	2	1	71	0.75	429890	427055	427889
428.8408	1	31	-99	-99	1	7	7	1	2	1	71	0.75	429890	427055	427889
431.676	1	10	2	420.1	1	4	8	0	2	1	72	0.75	435229	432725	433145
434.1796	1	30	-99	-99	1	4	8	0	2	1	72	0.75	435229	432725	433145
436.9153	1	10	1	772.8	1	2	8	1	1	1	73	0.75	441181	437964	438737
440.1318	1	31	-99	-99	1	2	8	1	1	1	73	0.75	441181	437964	438737
443.3483	1	10	1	467.8	1	8	8	1	1	1	74	0.75	446586	444397	444865
445.5368	1	31	-99	-99	1	8	8	1	1	1	74	0.75	446586	444397	444865
448.8363	1	10	1	619.9	1	4	2	1	1	1	75	0.75	452969	449885	450505
451.9201	1	31	-99	-99	1	4	2	1	1	1	75	0.75	452969	449885	450505
454.6724	1	10	1	615.8	1	7	4	1	1	1	76	0.75	458026	455722	456337
456.977	1	31	-99	-99	1	7	4	1	1	1	76	0.75	458026	455722	456337
460.1604	1	10	1	895.8	1	6	5	1	1	0	77	0.25	464277	461209	462105
463.2277	1	31	-99	-99	1	6	5	1	1	0	77	0.25	464277	461209	462105
466.726	1	10	1	834.1	1	2	3	0	1	0	78	0.25	470163	467775	468609
469.1136	1	30	-99	-99	1	2	3	0	1	0	78	0.25	470163	467775	468609
471.9819	1	10	2	1282.3	1	5	5	1	2	0	79	0.25	476662	473031	474313
475.6129	1	31	-99	-99	1	5	5	1	2	0	79	0.25	476662	473031	474313
478.5641	1	10	2	460	1	7	2	0	2	0	80	0.25	482399	479613	480073
481.3496	1	30	-99	-99	1	7	2	0	2	0	80	0.25	482399	479613	480073
483.9692	1	10	2	1087	1	2	8	0	2	0	81	0.25	488102	485018	486105
487.0531	1	30	-99	-99	1	2	8	0	2	0	81	0.25	488102	485018	486105
490.369	1	10	1	791.2	1	7	2	0	1	0	82	0.25	494253	491418	492209
493.2042	1	30	-99	-99	1	7	2	0	1	0	82	0.25	494253	491418	492209
495.8404	1	10	1	1815.7	1	8	6	0	1	0	83	0.25	500471	496890	498705
499.4217	1	30	-99	-99	1	8	6	0	1	0	83	0.25	500471	496890	498705
502.4724	1	10	2	295.8	1	3	5	0	2	0	84	0.25	505975	503522	503817
504.9263	1	30	-99	-99	1	3	5	0	2	0	84	0.25	505975	503522	503817
507.5127	1	10	2	439.5	1	8	6	1	2	0	85	0.25	510933	508562	509001
509.8837	1	31	-99	-99	1	8	6	1	2	0	85	0.25	510933	508562	509001
512.6691	1	10	2	475.1	1	4	3	1	2	0	86	0.25	515758	513718	514193
514.7084	1	31	-99	-99	1	4	3	1	2	0	86	0.25	515758	513718	514193
518.2234	1	10	2	424.8	1	8	8	1	2	0	87	0.25	521842	519272	519697
520.7933	1	31	-99	-99	1	8	8	1	2	0	87	0.25	521842	519272	519697
524.0761	1	10	1	876.1	1	3	2	0	1	0	88	0.25	528126	525125	526001
527.0771	1	30	3	4059.1	1	3	2	0	1	0	88	0.25	528126	525125	526001
532.1505	1	10	2	1777.7	1	6	8	1	2	1	89	0.25	536632	533200	534977
535.5826	1	31	-99	-99	1	6	8	1	2	1	89	0.25	536632	533200	534977
538.7825	1	10	2	569.7	1	5	5	1	2	1	90	0.25	542037	539832	540401
540.9877	1	31	-99	-99	1	5	5	1	2	1	90	0.25	542037	539832	540401
543.541	1	10	2	531.2	1	5	8	0	2	1	91	0.25	547475	544590	545121
546.4259	1	30	-99	-99	1	5	8	0	2	1	91	0.25	547475	544590	545121
549.4434	1	10	1	732.8	1	6	5	0	1	1	92	0.25	553659	550493	551225
552.6102	1	30	-99	-99	1	6	5	0	1	1	92	0.25	553659	550493	551225
555.2796	1	10	2	1112.6	1	5	7	0	2	1	93	0.25	559147	556329	557441
558.0982	1	30	-99	-99	1	5	7	0	2	1	93	0.25	559147	556329	557441
561.1489	1	10	2	427.3	1	8	2	1	2	1	94	0.25	565017	562198	562625
563.9675	1	31	-99	-99	1	8	2	1	2	1	94	0.25	565017	562198	562625
566.7364	1	10	2	687.8	1	3	3	1	2	1	95	0.25	570803	567785	568473
569.7539	1	31	-99	-99	1	3	3	1	2	1	95	0.25	570803	567785	568473
572.5559	1	10	2	444.3	1	7	8	0	2	1	96	0.25	575744	573605	574049
574.6947	1	30	-99	-99	1	7	8	0	2	1	96	0.25	575744	573605	574049
577.7786	1	10	2	1533.6	1	7	4	1	2	1	97	0.25	582376	578828	580361
581.3267	1	31	-99	-99	1	7	4	1	2	1	97	0.25	582376	578828	580361
584.593	1	10	2	455.2	1	4	3	1	2	1	98	0.25	588544	585642	586097
587.4945	1	31	-99	-99	1	4	3	1	2	1	98	0.25	588544	585642	586097
590.1638	1	10	2	588.4	1	6	5	1	2	1	99	0.25	593385	591213	591801
592.3358	1	31	-99	-99	1	6	5	1	2	1	99	0.25	593385	591213	591801
595.3699	1	10	2	606.3	1	4	8	1	2	1	100	0.25	598889	596419	597025
597.8404	1	31	-99	-99	1	4	8	1	2	1	100	0.25	598889	596419	597025
600.6921	1	10	2	492.1	1	2	4	1	2	1	101	0.25	603930	601741	602233
602.8807	1	31	-99	-99	1	2	4	1	2	1	101	0.25	603930	601741	602233
605.434	1	10	2	678.2	1	2	5	1	2	1	102	0.25	609484	606483	607161
608.435	1	31	-99	-99	1	2	5	1	2	1	102	0.25	609484	606483	607161
611.1043	1	10	1	1127.9	1	4	2	0	1	1	103	0.25	615353	612153	613281
614.3043	1	30	-99	-99	1	4	2	0	1	1	103	0.25	615353	612153	613281
617.471	1	10	2	673.2	1	7	8	1	2	1	104	0.25	621422	618520	619193
620.3725	1	31	-99	-99	1	7	8	1	2	1	104	0.25	621422	618520	619193
623.473	1	10	2	775.2	1	2	6	1	2	1	105	0.25	627042	624522	625297
625.9931	1	31	-99	-99	1	2	6	1	2	1	105	0.25	627042	624522	625297
629.0936	1	10	2	842.6	1	4	5	1	2	1	106	0.25	633028	630143	630985
631.9785	1	31	-99	-99	1	4	5	1	2	1	106	0.25	633028	630143	630985
634.9297	1	10	2	606.5	1	3	8	1	2	1	107	0.25	638383	635979	636585
637.3338	1	31	-99	-99	1	3	8	1	2	1	107	0.25	638383	635979	636585
640.1193	1	10	2	840.9	1	2	3	1	2	1	108	0.25	644053	641168	642009
643.0042	1	31	-99	-99	1	2	3	1	2	1	108	0.25	644053	641168	642009
646.2041	1	10	2	1020.1	1	7	2	1	2	1	109	0.25	649906	647253	648273
648.8569	1	31	-99	-99	1	7	2	1	2	1	109	0.25	649906	647253	648273
652.3221	1	10	2	622.1	1	3	8	0	2	0	110	0.75	655560	653371	653993
654.5107	1	30	-99	-99	1	3	8	0	2	0	110	0.75	655560	653371	653993
657.1635	1	10	2	948.7	1	4	7	1	2	0	111	0.75	661346	658213	659161
660.2971	1	31	-99	-99	1	4	7	1	2	0	111	0.75	661346	658213	659161
663.696	1	10	2	824.2	1	5	7	0	2	0	112	0.75	667680	664745	665569
666.6306	1	30	-99	-99	1	5	7	0	2	0	112	0.75	667680	664745	665569
670.0958	1	10	2	560.4	1	2	6	0	2	0	113	0.75	673914	671145	671705
672.8647	1	30	-99	-99	1	2	6	0	2	0	113	0.75	673914	671145	671705
675.7993	1	10	1	472.9	1	8	7	1	1	0	114	0.75	679717	676848	677321
678.6677	1	31	-99	-99	1	8	7	1	1	0	114	0.75	679717	676848	677321
681.3371	1	10	1	727.1	1	6	4	0	1	0	115	0.75	685420	682386	683113
684.3712	1	30	-99	-99	1	6	4	0	1	0	115	0.75	685420	682386	683113
687.7701	1	10	1	534.1	1	6	8	0	1	0	116	0.75	691439	688819	689353
690.3897	1	30	-99	-99	1	6	8	0	1	0	116	0.75	691439	688819	689353
693.6725	1	10	2	455.7	1	5	2	0	2	0	117	0.75	696943	694722	695177
695.8942	1	30	-99	-99	1	5	2	0	2	0	117	0.75	696943	694722	695177
699.2931	1	10	2	1019.1	1	2	2	0	2	0	118	0.75	703410	700342	701361
702.3604	1	30	-99	-99	1	2	2	0	2	0	118	0.75	703410	700342	701361
705.2619	1	10	1	722.3	1	8	2	1	1	0	119	0.75	708815	706311	707033
707.7655	1	31	-99	-99	1	8	2	1	1	0	119	0.75	708815	706311	707033
711.2639	1	10	1	456.3	1	8	6	1	1	0	120	0.75	714833	712313	712769
713.784	1	31	1	624.2	1	8	6	1	1	0	120	0.75	714833	712313	712769
716.3208	1	10	1	1183.4	1	2	3	1	1	0	121	0.75	720470	717370	718553
719.4212	1	31	-99	-99	1	2	3	1	1	0	121	0.75	720470	717370	718553
722.3559	1	10	1	748.3	1	5	5	1	1	0	122	0.75	726522	723405	724153
725.4729	1	31	-99	-99	1	5	5	1	1	0	122	0.75	726522	723405	724153
728.4241	1	10	1	552.1	1	5	2	1	1	0	123	0.75	731629	729473	730025
730.5795	1	31	3	4276.7	1	5	2	1	1	0	123	0.75	731629	729473	730025
