onset	duration	value	response	rt	good	Bd1	Bd2	F	Resp	buena	nt	prob	ttF	ttp	ttr
1.0256	1	10	1	1114.2	1	6	4	0	1	0	1	0.15	19171	16137	17251
4.0597	1	30	-99	-99	1	6	4	0	1	0	1	0.15	19171	16137	17251
7.4089	1	10	1	946.9	1	5	7	1	1	0	2	0.15	25869	22520	23467
10.758	1	31	-99	-99	1	5	7	1	1	0	2	0.15	25869	22520	23467
14.0574	1	10	1	826.5	1	6	3	0	1	0	3	0.15	31921	29169	29995
16.8097	1	30	-99	-99	1	6	3	0	1	0	3	0.15	31921	29169	29995
19.4127	1	10	3	871.1	1	8	2	1	3	0	4	0.15	37077	34524	35395
21.9661	1	31	-99	-99	1	8	2	1	3	0	4	0.15	37077	34524	35395
25.481	1	10	2	4682.8	1	6	4	1	2	0	5	0.15	46793	40592	45275
31.6819	1	31	-99	-99	1	6	4	1	2	0	5	0.15	46793	40592	45275
34.5668	1	10	2	1981	1	2	8	0	2	0	6	0.15	53575	49678	51659
38.4631	1	30	-99	-99	1	2	8	0	2	0	6	0.15	53575	49678	51659
41.0496	1	10	1	1090.2	1	7	7	0	1	0	7	0.15	59295	56161	57251
44.1832	1	30	-99	-99	1	7	7	0	1	0	7	0.15	59295	56161	57251
47.6982	1	10	1	1793.7	1	6	8	0	1	0	8	0.15	66988	62810	64603
51.8763	1	30	-99	-99	1	6	8	0	1	0	8	0.15	66988	62810	64603
55.3415	1	10	2	1926.3	1	5	5	0	2	0	9	0.15	74581	70453	72379
59.4699	1	30	-99	-99	1	5	5	0	2	0	9	0.15	74581	70453	72379
62.1559	1	10	2	4599.9	1	2	8	1	2	0	10	0.15	83999	77267	81867
68.8874	1	31	-99	-99	1	2	8	1	2	0	10	0.15	83999	77267	81867
71.6396	1	10	2	2452.2	1	5	7	1	2	0	11	0.15	91526	86751	89203
76.4147	1	31	-99	-99	1	5	7	1	2	0	11	0.15	91526	86751	89203
79.5317	1	10	1	992.1	1	6	4	0	1	0	12	0.15	97379	94643	95635
82.2674	1	30	-99	-99	1	6	4	0	1	0	12	0.15	97379	94643	95635
85.716	1	10	1	743.8	1	2	3	1	1	0	13	0.15	103646	100827	101571
88.5346	1	31	-99	-99	1	2	3	1	1	0	13	0.15	103646	100827	101571
91.2371	1	10	2	3774.8	1	8	2	1	2	0	14	0.15	112284	106349	110123
97.1728	1	31	-99	-99	1	8	2	1	2	0	14	0.15	112284	106349	110123
100.2566	1	10	1	1363.2	1	7	7	0	1	0	15	0.15	118833	115368	116731
103.7218	1	30	-99	-99	1	7	7	0	1	0	15	0.15	118833	115368	116731
107.0213	1	10	2	2302.5	1	5	7	1	2	0	16	0.15	126460	122133	124435
111.3486	1	31	-99	-99	1	5	7	1	2	0	16	0.15	126460	122133	124435
114.2501	1	10	1	1433.8	1	7	2	0	1	0	17	0.15	133158	129362	130795
118.0469	1	30	-99	-99	1	7	2	0	1	0	17	0.15	133158	129362	130795
121.0645	1	10	2	3043.3	1	6	3	0	2	0	18	0.15	141382	136176	139219
126.2706	1	30	-99	-99	1	6	3	0	2	0	18	0.15	141382	136176	139219
129.1389	1	10	1	1185	1	8	8	1	1	1	19	0.85	147251	144250	145435
132.1399	1	31	-99	-99	1	8	8	1	1	1	19	0.85	147251	144250	145435
134.9585	1	10	1	2549.3	1	4	2	1	1	1	20	0.85	154182	150070	152619
139.0703	1	31	-99	-99	1	4	2	1	1	1	20	0.85	154182	150070	152619
141.8226	1	10	2	3453.3	1	3	3	0	2	1	21	0.85	162372	156934	160387
147.2608	1	30	-99	-99	1	3	3	0	2	1	21	0.85	162372	156934	160387
150.0794	1	10	2	1556.5	1	8	5	0	2	1	22	0.85	168440	165191	166747
153.3291	1	30	-99	-99	1	8	5	0	2	1	22	0.85	168440	165191	166747
156.413	1	10	1	1734.9	1	3	5	1	1	1	23	0.85	175404	171524	173259
160.2927	1	31	-99	-99	1	3	5	1	1	1	23	0.85	175404	171524	173259
163.3931	1	10	1	1458.8	1	3	4	1	1	1	24	0.85	181622	178505	179963
166.5102	1	31	-99	-99	1	3	4	1	1	1	24	0.85	181622	178505	179963
169.1795	1	10	1	6544.4	1	7	2	1	1	1	25	0.85	193194	184291	190835
178.083	1	31	-99	-99	1	7	2	1	1	1	25	0.85	193194	184291	190835
181.2995	1	10	2	4392.4	1	3	5	0	2	1	26	0.85	202860	196411	200803
187.7491	1	30	-99	-99	1	3	5	0	2	1	26	0.85	202860	196411	200803
190.6008	1	10	1	3299.1	1	6	7	1	1	1	27	0.85	210554	205712	209011
195.4422	1	31	-99	-99	1	6	7	1	1	1	27	0.85	210554	205712	209011
198.2442	1	10	2	3983.7	1	2	3	0	2	1	28	0.85	218877	213356	217339
203.7653	1	30	-99	-99	1	2	3	0	2	1	28	0.85	218877	213356	217339
206.5508	1	10	1	1589.1	1	6	6	1	1	1	29	0.85	225343	221662	223251
210.2315	1	31	-99	-99	1	6	6	1	1	1	29	0.85	225343	221662	223251
213.4978	1	10	2	1378.1	1	5	5	0	2	1	30	0.85	232008	228609	229987
216.8967	1	30	3	3275.2	1	5	5	0	2	1	30	0.85	232008	228609	229987
221.1909	1	10	2	2109	1	4	3	1	2	0	31	0.25	240016	236302	238411
224.9048	1	31	-99	-99	1	4	3	1	2	0	31	0.25	240016	236302	238411
228.0881	1	10	2	1083.8	1	4	3	1	2	0	32	0.25	246250	243200	244283
231.1389	1	31	-99	-99	1	4	3	1	2	0	32	0.25	246250	243200	244283
234.6041	1	10	2	1575.8	1	2	6	1	2	0	33	0.25	253695	249715	251291
238.5832	1	31	-99	-99	1	2	6	1	2	0	33	0.25	253695	249715	251291
241.4184	1	10	2	729.5	1	2	6	1	2	0	34	0.25	258884	256530	257259
243.7728	1	31	-99	-99	1	2	6	1	2	0	34	0.25	258884	256530	257259
247.0059	1	10	1	2350	1	4	5	0	1	0	35	0.25	266693	262117	264467
251.5819	1	30	-99	-99	1	4	5	0	1	0	35	0.25	266693	262117	264467
254.3508	1	10	1	1869.1	1	5	7	1	1	0	36	0.25	273077	269462	271331
257.9652	1	31	-99	-99	1	5	7	1	1	0	36	0.25	273077	269462	271331
260.6512	1	10	1	1416.7	1	6	8	0	1	0	37	0.25	279476	275763	277179
264.3651	1	30	-99	-99	1	6	8	0	1	0	37	0.25	279476	275763	277179
267.4655	1	10	2	1858.4	1	2	2	1	2	0	38	0.25	286357	282577	284435
271.2458	1	31	-99	-99	1	2	2	1	2	0	38	0.25	286357	282577	284435
274.7607	1	10	1	1803.2	1	2	7	1	1	0	39	0.25	293686	289872	291675
278.5741	1	31	-99	-99	1	2	7	1	1	0	39	0.25	293686	289872	291675
281.2103	1	10	1	5057.6	1	5	7	0	1	0	40	0.25	303219	296322	301379
288.1076	1	30	-99	-99	1	5	7	0	1	0	40	0.25	303219	296322	301379
291.092	1	10	2	2695.9	1	2	3	1	2	0	41	0.25	310746	306203	308899
295.6349	1	31	-99	-99	1	2	3	1	2	0	41	0.25	310746	306203	308899
298.5695	1	10	2	778.4	1	2	7	1	2	0	42	0.25	316798	313681	314459
301.6866	1	31	-99	-99	1	2	7	1	2	0	42	0.25	316798	313681	314459
305.0523	1	10	1	863.6	1	3	6	1	1	0	43	0.25	322817	320164	321027
307.7051	1	31	-99	-99	1	3	6	1	1	0	43	0.25	322817	320164	321027
310.7392	1	10	1	784.7	1	7	5	0	1	0	44	0.25	328304	325851	326635
313.1931	1	30	-99	-99	1	7	5	0	1	0	44	0.25	328304	325851	326635
315.9288	1	10	1	5211.1	1	4	8	0	1	0	45	0.25	338435	331040	336251
323.3234	1	30	-99	-99	1	4	8	0	1	0	45	0.25	338435	331040	336251
326.3741	1	10	1	4301.8	1	5	7	0	1	0	46	0.25	347836	341486	345787
332.7243	1	30	-99	-99	1	5	7	0	1	0	46	0.25	347836	341486	345787
335.3936	1	10	1	3722.3	1	2	3	1	1	1	47	0.75	356092	350505	354227
340.9811	1	31	-99	-99	1	2	3	1	1	1	47	0.75	356092	350505	354227
343.5676	1	10	2	1500.3	1	7	4	0	2	1	48	0.75	362144	358679	360179
347.0328	1	30	-99	-99	1	7	4	0	2	1	48	0.75	362144	358679	360179
350.0172	1	10	2	1442.7	1	8	5	0	2	1	49	0.75	368992	365129	366571
353.8803	1	30	-99	-99	1	8	5	0	2	1	49	0.75	368992	365129	366571
356.8481	1	10	1	2459.8	1	8	3	1	1	1	50	0.75	376303	371960	374419
361.1921	1	31	-99	-99	1	8	3	1	1	1	50	0.75	376303	371960	374419
363.7951	1	10	2	1104.8	1	5	2	0	2	1	51	0.75	382256	378907	380011
367.1443	1	30	-99	-99	1	5	2	0	2	1	51	0.75	382256	378907	380011
370.195	1	10	2	1800.9	1	6	7	0	2	1	52	0.75	388722	385306	387107
373.6104	1	30	-99	-99	1	6	7	0	2	1	52	0.75	388722	385306	387107
377.0591	1	10	2	856.8	1	5	3	1	2	1	53	0.75	395420	392170	393027
380.3088	1	31	-99	-99	1	5	3	1	2	1	53	0.75	395420	392170	393027
383.4092	1	10	2	2434.7	1	8	2	0	2	1	54	0.75	403262	398521	400955
388.1511	1	30	-99	-99	1	8	2	0	2	1	54	0.75	403262	398521	400955
391.5665	1	10	1	1029.4	1	5	4	1	1	1	55	0.75	409944	406678	407707
394.8328	1	31	-99	-99	1	5	4	1	1	1	55	0.75	409944	406678	407707
398.1654	1	10	1	950.5	1	7	6	1	1	1	56	0.75	416261	413277	414227
401.1498	1	31	-99	-99	1	7	6	1	1	1	56	0.75	416261	413277	414227
404.2668	1	10	2	5297.1	1	3	4	0	2	1	57	0.75	427022	419378	424675
411.9102	1	30	-99	-99	1	3	4	0	2	1	57	0.75	427022	419378	424675
414.7453	1	10	1	1490.6	1	7	3	1	1	1	58	0.75	433206	429857	431347
418.0945	1	31	3	3933.4	1	7	3	1	1	1	58	0.75	433206	429857	431347
423.0519	1	10	2	2208	1	4	8	1	2	0	59	0.85	442855	438163	440371
427.744	1	31	-99	-99	1	4	8	1	2	0	59	0.85	442855	438163	440371
431.06	1	10	1	967.9	1	8	6	1	1	0	60	0.85	449338	446171	447139
434.2268	1	31	-99	-99	1	8	6	1	1	0	60	0.85	449338	446171	447139
437.5096	1	10	2	926.3	1	3	8	0	2	0	61	0.85	455539	452621	453547
440.4277	1	30	-99	-99	1	3	8	0	2	0	61	0.85	455539	452621	453547
443.81	1	10	2	729.9	1	2	3	0	2	0	62	0.85	461839	458921	459651
446.7281	1	30	-99	-99	1	2	3	0	2	0	62	0.85	461839	458921	459651
449.4638	1	10	1	1676.2	1	8	4	1	1	0	63	0.85	468123	464575	466251
453.0119	1	31	-99	-99	1	8	4	1	1	0	63	0.85	468123	464575	466251
455.8636	1	10	1	1860.3	1	2	3	1	1	0	64	0.85	474473	470975	472835
459.362	1	31	-99	-99	1	2	3	1	1	0	64	0.85	474473	470975	472835
462.4956	1	10	2	908.3	1	7	2	1	2	0	65	0.85	480260	477607	478515
465.1484	1	31	-99	-99	1	7	2	1	2	0	65	0.85	480260	477607	478515
467.8343	1	10	2	3105.6	1	5	6	0	2	0	66	0.85	487572	482946	486051
472.4602	1	30	-99	-99	1	5	6	0	2	0	66	0.85	487572	482946	486051
475.4446	1	10	2	1735.4	1	2	3	1	2	0	67	0.85	494237	490556	492291
479.1253	1	31	-99	-99	1	2	3	1	2	0	67	0.85	494237	490556	492291
482.3252	1	10	1	1014.7	1	3	2	1	1	0	68	0.85	500504	497437	498451
485.3925	1	31	-99	-99	1	3	2	1	1	0	68	0.85	500504	497437	498451
488.6422	1	10	1	1273.8	1	4	7	1	1	0	69	0.85	507335	503754	505027
492.2235	1	31	-99	-99	1	4	7	1	1	0	69	0.85	507335	503754	505027
495.4731	1	10	1	2170.8	1	2	2	1	1	0	70	0.85	514564	510585	512755
499.4523	1	31	-99	-99	1	2	2	1	1	0	70	0.85	514564	510585	512755
502.6854	1	10	2	3462.6	1	5	4	1	2	0	71	0.85	523517	517797	521259
508.4055	1	31	-99	-99	1	5	4	1	2	0	71	0.85	523517	517797	521259
511.1744	1	10	2	3901.5	1	6	3	0	2	0	72	0.85	532205	526286	530187
517.0934	1	30	-99	-99	1	6	3	0	2	0	72	0.85	532205	526286	530187
520.1276	1	10	1	2468.4	1	5	3	1	1	0	73	0.85	540230	535239	537707
525.1181	1	31	-99	-99	1	5	3	1	1	0	73	0.85	540230	535239	537707
528.3844	1	10	2	2459.5	1	8	6	0	2	0	74	0.85	547773	543496	545955
532.662	1	30	-99	-99	1	8	6	0	2	0	74	0.85	547773	543496	545955
535.6795	1	10	2	6596.5	1	6	3	1	2	1	75	0.15	558948	550791	557387
543.8369	1	31	-99	-99	1	6	3	1	2	1	75	0.15	558948	550791	557387
546.5726	1	10	2	799.4	1	6	3	1	2	1	76	0.15	564900	561684	562483
549.7891	1	31	-99	-99	1	6	3	1	2	1	76	0.15	564900	561684	562483
553.1217	1	10	1	1282.2	1	4	4	0	1	1	77	0.15	571582	568233	569515
556.4708	1	30	-99	-99	1	4	4	0	1	1	77	0.15	571582	568233	569515
559.82	1	10	1	2311.9	1	5	8	1	1	1	78	0.15	579325	574931	577243
564.2137	1	31	-99	-99	1	5	8	1	1	1	78	0.15	579325	574931	577243
567.1815	1	10	1	1534.4	1	8	3	0	1	1	79	0.15	585725	582293	583827
570.6135	1	30	-99	-99	1	8	3	0	1	1	79	0.15	585725	582293	583827
573.9461	1	10	1	1649.8	1	6	5	1	1	1	80	0.15	592307	589057	590707
577.1958	1	31	-99	-99	1	6	5	1	1	1	80	0.15	592307	589057	590707
579.8817	1	10	2	610.2	1	4	8	1	2	1	81	0.15	597712	594993	595603
582.6008	1	31	-99	-99	1	4	8	1	2	1	81	0.15	597712	594993	595603
585.8008	1	10	2	675.2	1	2	4	1	2	1	82	0.15	603482	600912	601587
588.3707	1	31	-99	-99	1	2	4	1	2	1	82	0.15	603482	600912	601587
591.5706	1	10	1	1041.4	1	4	2	0	1	1	83	0.15	610230	606682	607723
595.1187	1	30	-99	-99	1	4	2	0	1	1	83	0.15	610230	606682	607723
597.7218	1	10	1	698.2	1	5	5	0	1	1	84	0.15	615171	612833	613531
600.0595	1	30	-99	-99	1	5	5	0	1	1	84	0.15	615171	612833	613531
603.3921	1	10	2	651.9	1	3	3	1	2	1	85	0.15	621372	618504	619155
606.2604	1	31	-99	-99	1	3	3	1	2	1	85	0.15	621372	618504	619155
609.4106	1	10	2	641.4	1	5	8	1	2	1	86	0.15	627158	624522	625163
612.0468	1	31	-99	-99	1	5	8	1	2	1	86	0.15	627158	624522	625163
614.6831	1	10	2	528.9	1	2	6	0	2	1	87	0.15	631966	629794	630323
616.855	1	30	-99	-99	1	2	6	0	2	1	87	0.15	631966	629794	630323
619.9223	1	10	1	1145.7	1	7	6	0	1	1	88	0.15	637935	635034	636179
622.8238	1	30	-99	-99	1	7	6	0	1	1	88	0.15	637935	635034	636179
625.9906	1	10	2	2213.4	1	3	6	1	2	1	89	0.15	645197	641102	643315
630.0858	1	31	3	3518.2	1	3	6	1	2	1	89	0.15	645197	641102	643315
634.6288	1	10	1	2439.2	1	5	8	0	1	1	90	0.25	653769	649740	652179
638.6577	1	30	-99	-99	1	5	8	0	1	1	90	0.25	653769	649740	652179
641.4928	1	10	1	1567.2	1	8	5	0	1	1	91	0.25	660534	656604	658171
645.4223	1	30	-99	-99	1	8	5	0	1	1	91	0.25	660534	656604	658171
648.8046	1	10	1	1871.4	1	8	7	0	1	1	92	0.25	667746	663916	665787
652.6346	1	30	-99	-99	1	8	7	0	1	1	92	0.25	667746	663916	665787
655.9837	1	10	2	1684.3	1	2	4	1	2	1	93	0.25	675058	671095	672779
659.9464	1	31	-99	-99	1	2	4	1	2	1	93	0.25	675058	671095	672779
663.0634	1	10	2	780.6	1	2	4	1	2	1	94	0.25	680496	678175	678955
665.3846	1	31	-99	-99	1	2	4	1	2	1	94	0.25	680496	678175	678955
668.7503	1	10	1	6501.7	1	2	6	1	1	1	95	0.25	692036	683862	690363
676.9242	1	31	-99	-99	1	2	6	1	1	1	95	0.25	692036	683862	690363
680.1407	1	10	1	4639.3	1	5	8	1	1	1	96	0.25	702017	695252	699891
686.9054	1	31	-99	-99	1	5	8	1	1	1	96	0.25	702017	695252	699891
690.0887	1	10	1	2619.3	1	6	8	0	1	1	97	0.25	710158	705200	707819
695.0461	1	30	-99	-99	1	6	8	0	1	1	97	0.25	710158	705200	707819
697.8647	1	10	2	2019.3	1	3	7	0	2	1	98	0.25	716806	712976	714995
701.6947	1	30	-99	-99	1	3	7	0	2	1	98	0.25	716806	712976	714995
704.7454	1	10	1	4050.6	1	5	3	0	1	1	99	0.25	726025	719857	723907
710.9131	1	30	-99	-99	1	5	3	0	1	1	99	0.25	726025	719857	723907
713.4996	1	10	2	792.4	1	5	5	0	2	1	100	0.25	731214	728611	729403
716.1027	1	30	-99	-99	1	5	5	0	2	1	100	0.25	731214	728611	729403
719.5845	1	10	1	1323.5	1	8	2	0	1	1	101	0.25	738310	734696	736019
723.1989	1	30	-99	-99	1	8	2	0	1	1	101	0.25	738310	734696	736019
725.9512	1	10	1	1660.8	1	5	8	0	1	1	102	0.25	744959	741063	742723
729.8475	1	30	-99	-99	1	5	8	0	1	1	102	0.25	744959	741063	742723
732.9645	1	10	2	1351.5	1	6	2	1	2	1	103	0.25	751375	748076	749427
736.2639	1	31	-99	-99	1	6	2	1	2	1	103	0.25	751375	748076	749427
739.696	1	10	1	2212	1	2	4	0	1	1	104	0.25	759466	754807	757019
744.3549	1	30	-99	-99	1	2	4	0	1	1	104	0.25	759466	754807	757019
747.7372	1	10	2	1322.8	1	6	8	1	2	1	105	0.25	765999	762849	764171
750.8874	1	31	-99	-99	1	6	8	1	2	1	105	0.25	765999	762849	764171
754.1537	1	10	2	2026.3	1	5	7	0	2	0	106	0.75	773576	769265	771291
758.4645	1	30	-99	-99	1	5	7	0	2	0	106	0.75	773576	769265	771291
761.1836	1	10	2	2460.4	1	6	6	0	2	0	107	0.75	780556	776295	778755
765.4446	1	30	-99	-99	1	6	6	0	2	0	107	0.75	780556	776295	778755
768.8933	1	10	2	2470.7	1	2	4	0	2	0	108	0.75	788183	784005	786475
773.0714	1	30	-99	-99	1	2	4	0	2	0	108	0.75	788183	784005	786475
775.9066	1	10	1	825.4	1	3	3	1	1	0	109	0.75	793455	791018	791843
778.3438	1	31	-99	-99	1	3	3	1	1	0	109	0.75	793455	791018	791843
781.2951	1	10	2	916.9	1	7	3	0	2	0	110	0.75	798877	796406	797323
783.7655	1	30	-99	-99	1	7	3	0	2	0	110	0.75	798877	796406	797323
787.0317	1	10	1	2220.3	1	6	3	1	1	0	111	0.75	805907	802143	804363
790.7954	1	31	-99	-99	1	6	3	1	1	0	111	0.75	805907	802143	804363
793.8793	1	10	2	4156.7	1	8	7	0	2	0	112	0.75	815059	808991	813147
799.9475	1	30	-99	-99	1	8	7	0	2	0	112	0.75	815059	808991	813147
802.9485	1	10	2	1599.5	1	5	4	0	2	0	113	0.75	821923	818060	819659
806.8116	1	30	-99	-99	1	5	4	0	2	0	113	0.75	821923	818060	819659
809.4313	1	10	1	868.7	1	6	6	0	1	0	114	0.75	827312	824543	825411
812.2001	1	30	-99	-99	1	6	6	0	1	0	114	0.75	827312	824543	825411
815.4995	1	10	2	4648.6	1	4	6	0	2	0	115	0.75	837309	830611	835259
822.1978	1	30	-99	-99	1	4	6	0	2	0	115	0.75	837309	830611	835259
825.4972	1	10	2	1930.8	1	7	8	0	2	0	116	0.75	844157	840609	842539
829.0453	1	30	-99	-99	1	7	8	0	2	0	116	0.75	844157	840609	842539
831.8308	1	10	1	1949.2	1	6	5	1	1	0	117	0.75	851054	846942	848891
835.9426	1	31	-99	-99	1	6	5	1	1	0	117	0.75	851054	846942	848891
839.3747	1	10	1	4693.4	1	5	8	0	1	0	118	0.75	861367	854486	859179
846.2553	1	30	3	4180.7	1	5	8	0	1	0	118	0.75	861367	854486	859179
