onset	duration	value	response	rt	good	Bd1	Bd2	F	Resp	buena	nt	prob	ttF	ttp	ttr
1.0309	1	10	1	608.6	1	8	3	0	1	0	1	0.25	17463	15126	15734
3.3687	1	30	-99	-99	1	8	3	0	1	0	1	0.25	17463	15126	15734
6.7344	1	10	2	225.1	1	4	5	1	2	0	2	0.25	23167	20829	21054
9.0722	1	31	-99	-99	1	4	5	1	2	0	2	0.25	23167	20829	21054
11.7913	1	10	2	256.3	1	3	5	1	2	0	3	0.25	28274	25886	26142
14.1788	1	31	-99	-99	1	3	5	1	2	0	3	0.25	28274	25886	26142
17.528	1	10	2	287.5	1	3	6	1	2	0	4	0.25	33811	31623	31910
19.7165	1	31	-99	-99	1	3	6	1	2	0	4	0.25	33811	31623	31910
22.8335	1	10	1	502	1	5	4	0	1	0	5	0.25	39332	36928	37430
25.2376	1	30	-99	-99	1	5	4	0	1	0	5	0.25	39332	36928	37430
28.1889	1	10	1	314.6	1	6	3	0	1	0	6	0.25	44837	42284	42598
30.7422	1	30	-99	-99	1	6	3	0	1	0	6	0.25	44837	42284	42598
33.9753	1	10	1	72.2	1	3	4	0	1	0	7	0.25	49861	48070	48142
35.7659	1	30	-99	-99	1	3	4	0	1	0	7	0.25	49861	48070	48142
38.5016	1	10	1	721.9	1	2	6	1	1	0	8	0.25	55050	52596	53318
40.9554	1	31	-99	-99	1	2	6	1	1	0	8	0.25	55050	52596	53318
44.1056	1	10	1	845.9	1	2	2	1	1	0	9	0.25	61533	58200	59046
47.4382	1	31	-99	-99	1	2	2	1	1	0	9	0.25	61533	58200	59046
50.0413	1	10	1	782.3	1	5	5	0	1	0	10	0.25	66772	64136	64918
52.6775	1	30	-99	-99	1	5	5	0	1	0	10	0.25	66772	64136	64918
56.0432	1	10	1	564.3	1	6	2	0	1	0	11	0.25	72227	70138	70702
58.1323	1	30	-99	-99	1	6	2	0	1	0	11	0.25	72227	70138	70702
61.1001	1	10	2	371.4	1	6	7	1	2	0	12	0.25	77118	75195	75566
63.0234	1	31	-99	-99	1	6	7	1	2	0	12	0.25	77118	75195	75566
65.9249	1	10	1	626.6	1	3	3	1	1	0	13	0.25	83070	80020	80646
68.9756	1	31	-99	-99	1	3	3	1	1	0	13	0.25	83070	80020	80646
72.3081	1	10	2	403.4	1	6	8	1	2	0	14	0.25	88973	86403	86806
74.878	1	31	-99	-99	1	6	8	1	2	0	14	0.25	88973	86403	86806
77.6137	1	10	2	1145.9	1	3	5	1	2	0	15	0.25	95008	91708	92854
80.9131	1	31	-99	-99	1	3	5	1	2	0	15	0.25	95008	91708	92854
84.1462	1	10	2	893.3	1	2	8	1	2	0	16	0.25	101524	98241	99134
87.4291	1	31	-99	-99	1	2	8	1	2	0	16	0.25	101524	98241	99134
90.6622	1	10	1	1729.3	1	2	6	0	1	0	17	0.25	108719	104757	106486
94.6248	1	30	-99	-99	1	2	6	0	1	0	17	0.25	108719	104757	106486
97.9905	1	10	1	961	1	4	5	0	1	0	18	0.25	115070	112085	113046
100.9749	1	30	-99	-99	1	4	5	0	1	0	18	0.25	115070	112085	113046
104.4235	1	10	2	472	1	5	2	0	2	0	19	0.25	120640	118518	118990
106.5457	1	30	-99	-99	1	5	2	0	2	0	19	0.25	120640	118518	118990
109.0991	1	10	2	380.5	1	6	3	0	2	1	20	0.75	125465	123194	123574
111.3705	1	30	-99	-99	1	6	3	0	2	1	20	0.75	125465	123194	123574
114.6865	1	10	2	361.1	1	4	4	1	2	1	21	0.75	131003	128781	129142
116.9082	1	31	-99	-99	1	4	4	1	2	1	21	0.75	131003	128781	129142
120.1745	1	10	2	689	1	6	5	0	2	1	22	0.75	136773	134269	134958
122.6781	1	30	-99	-99	1	6	5	0	2	1	22	0.75	136773	134269	134958
125.6293	1	10	1	322.3	1	7	7	1	1	1	23	0.75	141730	139724	140046
127.6355	1	31	-99	-99	1	7	7	1	1	1	23	0.75	141730	139724	140046
130.2883	1	10	1	1063.3	1	8	2	1	1	1	24	0.75	147815	144383	145446
133.7203	1	31	-99	-99	1	8	2	1	1	1	24	0.75	147815	144383	145446
136.8539	1	10	2	697.6	1	3	7	0	2	1	25	0.75	153286	150949	151646
139.1917	1	30	-99	-99	1	3	7	0	2	1	25	0.75	153286	150949	151646
142.5243	1	10	2	451.2	1	2	6	0	2	1	26	0.75	158940	156619	157070
144.8455	1	30	-99	-99	1	2	6	0	2	1	26	0.75	158940	156619	157070
147.8299	1	10	2	409.6	1	7	3	0	2	1	27	0.75	163964	161925	162334
149.8692	1	30	-99	-99	1	7	3	0	2	1	27	0.75	163964	161925	162334
153.152	1	10	2	367.6	1	2	5	0	2	1	28	0.75	169435	167247	167614
155.3406	1	30	2	3427	1	2	5	0	2	1	28	0.75	169435	167247	167614
158.8224	1	10	2	1017.2	1	6	3	0	2	1	29	0.75	176399	172917	173934
162.3041	1	30	-99	-99	1	6	3	0	2	1	29	0.75	176399	172917	173934
164.9072	1	10	2	420.4	1	4	6	0	2	1	30	0.75	181539	179002	179422
167.4439	1	30	-99	-99	1	4	6	0	2	1	30	0.75	181539	179002	179422
170.1631	1	10	2	324.5	1	6	4	0	2	1	31	0.75	186098	184258	184582
172.0034	1	30	3	2692.2	1	6	4	0	2	1	31	0.75	186098	184258	184582
175.7173	1	10	1	562.3	1	6	3	1	1	0	32	0.75	192448	189812	190374
178.3535	1	31	-99	-99	1	6	3	1	1	0	32	0.75	192448	189812	190374
181.2219	1	10	1	633.7	1	4	2	1	1	0	33	0.75	198268	195317	195950
184.1731	1	31	-99	-99	1	4	2	1	1	0	33	0.75	198268	195317	195950
187.6881	1	10	1	343.5	1	6	2	1	1	0	34	0.75	204369	201783	202126
190.2745	1	31	-99	-99	1	6	2	1	1	0	34	0.75	204369	201783	202126
193.7895	1	10	2	402.1	1	2	8	0	2	0	35	0.75	210520	207884	208286
196.4257	1	30	-99	-99	1	2	8	0	2	0	35	0.75	210520	207884	208286
199.3603	1	10	2	487.3	1	5	3	0	2	0	36	0.75	215478	213455	213942
201.3831	1	30	-99	-99	1	5	3	0	2	0	36	0.75	215478	213455	213942
204.4172	1	10	2	1086.4	1	2	7	0	2	0	37	0.75	221513	218512	219598
207.4182	1	30	-99	-99	1	2	7	0	2	0	37	0.75	221513	218512	219598
210.8668	1	10	2	1108.8	1	4	8	1	2	0	38	0.75	228128	224962	226070
214.0336	1	31	-99	-99	1	4	8	1	2	0	38	0.75	228128	224962	226070
217.2667	1	10	2	412.9	1	4	2	0	2	0	39	0.75	234064	231361	231774
219.9692	1	30	-99	-99	1	4	2	0	2	0	39	0.75	234064	231361	231774
222.6718	1	10	1	431.8	1	8	2	1	1	0	40	0.75	238839	236766	237198
224.7443	1	31	-99	-99	1	8	2	1	1	0	40	0.75	238839	236766	237198
227.3639	1	10	1	1003.7	1	8	2	1	1	0	41	0.75	244460	241459	242462
230.3649	1	31	-99	-99	1	8	2	1	1	0	41	0.75	244460	241459	242462
233.399	1	10	1	936.6	1	4	6	0	1	0	42	0.75	250379	247494	248430
236.2839	1	30	-99	-99	1	4	6	0	1	0	42	0.75	250379	247494	248430
239.517	1	10	1	1226.6	1	2	4	1	1	0	43	0.75	256613	253612	254838
242.518	1	31	-99	-99	1	2	4	1	1	0	43	0.75	256613	253612	254838
245.7511	1	10	1	472.5	1	7	6	1	1	0	44	0.75	262830	259846	260318
248.7355	1	31	-99	-99	1	7	6	1	1	0	44	0.75	262830	259846	260318
251.3551	1	10	2	396.5	1	2	2	0	2	0	45	0.75	268285	265450	265846
254.1903	1	30	-99	-99	1	2	2	0	2	0	45	0.75	268285	265450	265846
257.357	1	10	2	330.6	1	4	7	0	2	0	46	0.75	273673	271452	271782
259.5787	1	30	-99	-99	1	4	7	0	2	0	46	0.75	273673	271452	271782
262.0989	1	10	2	332.7	1	3	6	0	2	0	47	0.75	278067	276194	276526
263.9724	1	30	-99	-99	1	3	6	0	2	0	47	0.75	278067	276194	276526
266.6916	1	10	1	932	1	6	2	1	1	0	48	0.75	283771	280786	281718
269.6759	1	31	-99	-99	1	6	2	1	1	0	48	0.75	283771	280786	281718
272.6935	1	10	1	658.1	1	7	5	0	1	1	49	0.25	289275	286788	287446
275.1805	1	30	-99	-99	1	7	5	0	1	1	49	0.25	289275	286788	287446
277.9991	1	10	2	840.5	1	3	3	1	2	1	50	0.25	295078	292094	292934
280.9835	1	31	-99	-99	1	3	3	1	2	1	50	0.25	295078	292094	292934
283.9181	1	10	1	665.5	1	4	3	0	1	1	51	0.25	300367	298013	298678
286.2725	1	30	-99	-99	1	4	3	0	1	1	51	0.25	300367	298013	298678
289.2403	1	10	1	463.3	1	7	5	0	1	1	52	0.25	306286	303335	303798
292.1915	1	30	-99	-99	1	7	5	0	1	1	52	0.25	306286	303335	303798
295.6733	1	10	1	870.3	1	8	3	0	1	1	53	0.25	312686	309768	310638
298.5914	1	30	-99	-99	1	8	3	0	1	1	53	0.25	312686	309768	310638
302.0234	1	10	1	472.2	1	2	2	0	1	1	54	0.25	318439	316118	316590
304.3446	1	30	-99	-99	1	2	2	0	1	1	54	0.25	318439	316118	316590
306.9477	1	10	1	363.9	1	6	2	0	1	1	55	0.25	323894	321042	321406
309.7994	1	30	-99	-99	1	6	2	0	1	1	55	0.25	323894	321042	321406
313.2978	1	10	1	357.8	1	7	8	0	1	1	56	0.25	330112	327393	327750
316.0169	1	30	-99	-99	1	7	8	0	1	1	56	0.25	330112	327393	327750
318.6531	1	10	1	986.6	1	2	5	1	1	1	57	0.25	335732	332748	333734
321.6375	1	31	-99	-99	1	2	5	1	1	1	57	0.25	335732	332748	333734
325.1193	1	10	2	544.3	1	2	4	1	2	1	58	0.25	342099	339214	339758
328.0042	1	31	-99	-99	1	2	4	1	2	1	58	0.25	342099	339214	339758
331.1544	1	10	1	701.2	1	8	2	1	1	1	59	0.25	348001	345249	345950
333.9067	1	31	-99	-99	1	8	2	1	1	1	59	0.25	348001	345249	345950
336.659	1	10	2	668.6	1	6	6	1	2	1	60	0.25	353406	350754	351422
339.3118	1	31	-99	-99	1	6	6	1	2	1	60	0.25	353406	350754	351422
341.9148	1	10	1	388.8	1	6	6	0	1	1	61	0.25	358812	356010	356398
344.7168	1	30	-99	-99	1	6	6	0	1	1	61	0.25	358812	356010	356398
348.1489	1	10	2	650.7	1	2	8	1	2	1	62	0.25	364714	362244	362894
350.6193	1	31	-99	-99	1	2	8	1	2	1	62	0.25	364714	362244	362894
353.7529	1	10	2	270.7	1	4	4	1	2	1	63	0.25	370335	367848	368118
356.2399	1	31	3	3199.7	1	4	4	1	2	1	63	0.25	370335	367848	368118
360.4678	1	10	1	499.8	1	5	3	1	1	1	64	0.85	377431	374562	375062
363.3361	1	31	-99	-99	1	5	3	1	1	1	64	0.85	377431	374562	375062
366.1879	1	10	2	1171.7	1	3	7	0	2	1	65	0.85	383201	380283	381454
369.106	1	30	-99	-99	1	3	7	0	2	1	65	0.85	383201	380283	381454
371.8582	1	10	1	957.4	1	5	3	1	1	1	66	0.85	389087	385953	386910
374.9918	1	31	-99	-99	1	5	3	1	1	1	66	0.85	389087	385953	386910
377.7441	1	10	1	1311.5	1	8	3	1	1	1	67	0.85	395122	391839	393150
381.0269	1	31	-99	-99	1	8	3	1	1	1	67	0.85	395122	391839	393150
383.8787	1	10	1	648.9	1	2	2	0	1	1	68	0.85	400775	397973	398622
386.6807	1	30	-99	-99	1	2	2	0	1	1	68	0.85	400775	397973	398622
389.4495	1	10	1	558.1	1	7	8	1	1	1	69	0.85	406214	403544	404102
392.1189	1	31	-99	-99	1	7	8	1	1	1	69	0.85	406214	403544	404102
394.8546	1	10	2	817.1	1	4	5	0	2	1	70	0.85	411635	408949	409766
397.5406	1	30	-99	-99	1	4	5	0	2	1	70	0.85	411635	408949	409766
401.0058	1	10	1	497.8	1	3	2	0	1	1	71	0.85	418035	415100	415598
403.9404	1	30	-99	-99	1	3	2	0	1	1	71	0.85	418035	415100	415598
406.7424	1	10	1	329.2	1	5	4	1	1	1	72	0.85	423125	420837	421166
409.0305	1	31	-99	-99	1	5	4	1	1	1	72	0.85	423125	420837	421166
411.6501	1	10	1	333.5	1	8	7	1	1	1	73	0.85	428331	425745	426078
414.2366	1	31	-99	-99	1	8	7	1	1	1	73	0.85	428331	425745	426078
417.5028	1	10	2	928.9	1	8	4	0	2	1	74	0.85	434565	431598	432526
420.4707	1	30	-99	-99	1	8	4	0	2	1	74	0.85	434565	431598	432526
423.4716	1	10	2	392	1	2	2	1	2	1	75	0.85	439854	437566	437958
425.7596	1	31	-99	-99	1	2	2	1	2	1	75	0.85	439854	437566	437958
428.6446	1	10	1	307.1	1	4	7	1	1	1	76	0.85	444861	442739	443046
430.7668	1	31	-99	-99	1	4	7	1	1	1	76	0.85	444861	442739	443046
433.8838	1	10	1	315.9	1	2	3	1	1	1	77	0.85	450781	447979	448294
436.6858	1	31	-99	-99	1	2	3	1	1	1	77	0.85	450781	447979	448294
439.4713	1	10	2	344.4	1	7	4	0	2	1	78	0.85	455473	453566	453910
441.378	1	30	-99	-99	1	7	4	0	2	1	78	0.85	455473	453566	453910
444.6442	1	10	1	419.5	1	8	4	0	1	1	79	0.85	461359	458739	459158
447.2638	1	30	-99	-99	1	8	4	0	1	1	79	0.85	461359	458739	459158
450.6793	1	10	1	336.4	1	8	5	1	1	1	80	0.85	466830	464774	465110
452.7352	1	31	-99	-99	1	8	5	1	1	1	80	0.85	466830	464774	465110
455.8523	1	10	1	459.4	1	5	3	0	1	1	81	0.85	472152	469947	470406
458.0574	1	30	-99	-99	1	5	3	0	1	1	81	0.85	472152	469947	470406
460.8594	1	10	2	564.3	1	5	8	0	2	1	82	0.85	477541	474954	475518
463.4459	1	30	-99	-99	1	5	8	0	2	1	82	0.85	477541	474954	475518
466.7287	1	10	2	446.9	1	8	2	1	2	0	83	0.15	483443	480823	481270
469.3484	1	31	-99	-99	1	8	2	1	2	0	83	0.15	483443	480823	481270
472.2001	1	10	1	543.6	1	5	8	0	1	0	84	0.15	489163	486295	486838
475.0684	1	30	-99	-99	1	5	8	0	1	0	84	0.15	489163	486295	486838
478.5502	1	10	1	393.4	1	2	7	0	1	0	85	0.15	495265	492645	493038
481.1699	1	30	-99	-99	1	2	7	0	1	0	85	0.15	495265	492645	493038
483.9221	1	10	1	613.6	1	6	7	0	1	0	86	0.15	500172	498017	498630
486.0775	1	30	-99	-99	1	6	7	0	1	0	86	0.15	500172	498017	498630
488.7966	1	10	1	683.1	1	2	2	0	1	0	87	0.15	505295	502891	503574
491.2007	1	30	-99	-99	1	2	2	0	1	0	87	0.15	505295	502891	503574
494.5499	1	10	1	577.8	1	8	8	0	1	0	88	0.15	510966	508645	509222
496.8711	1	30	-99	-99	1	8	8	0	1	0	88	0.15	510966	508645	509222
499.6731	1	10	1	782.6	1	4	7	0	1	0	89	0.15	516503	513768	514550
502.4088	1	30	-99	-99	1	4	7	0	1	0	89	0.15	516503	513768	514550
505.4761	1	10	1	291.6	1	6	3	0	1	0	90	0.15	521494	519571	519862
507.3993	1	30	-99	-99	1	6	3	0	1	0	90	0.15	521494	519571	519862
510.1019	1	10	2	345.8	1	7	8	1	2	0	91	0.15	526982	524197	524542
512.8873	1	31	-99	-99	1	7	8	1	2	0	91	0.15	526982	524197	524542
515.7888	1	10	2	698.9	1	5	7	1	2	0	92	0.15	532752	529884	530582
518.6571	1	31	-99	-99	1	5	7	1	2	0	92	0.15	532752	529884	530582
521.4757	1	10	1	428	1	8	2	0	1	0	93	0.15	538091	535570	535998
523.9959	1	30	-99	-99	1	8	2	0	1	0	93	0.15	538091	535570	535998
526.715	1	10	1	372.7	1	4	4	0	1	0	94	0.15	543297	540810	541182
529.202	1	30	-99	-99	1	4	4	0	1	0	94	0.15	543297	540810	541182
532.1532	1	10	2	254.5	1	4	2	0	2	0	95	0.15	548503	546248	546502
534.4081	1	30	-99	-99	1	4	2	0	2	0	95	0.15	548503	546248	546502
537.5086	1	10	2	411.1	1	2	3	0	2	0	96	0.15	553692	551603	552014
539.5976	1	30	-99	-99	1	2	3	0	2	0	96	0.15	553692	551603	552014
542.5489	1	10	1	682.8	1	8	5	0	1	0	97	0.15	559694	556644	557326
545.5996	1	30	-99	-99	1	8	5	0	1	0	97	0.15	559694	556644	557326
548.3518	1	10	2	271.9	1	2	3	1	2	0	98	0.15	565050	562447	562718
550.9549	1	31	3	3292.8	1	2	3	1	2	0	98	0.15	565050	562447	562718
555.2657	1	10	1	462	1	2	5	0	1	1	99	0.15	571383	569360	569822
557.2884	1	30	-99	-99	1	2	5	0	1	1	99	0.15	571383	569360	569822
559.8583	1	10	1	597.4	1	4	3	0	1	1	100	0.15	576639	573953	574550
562.5443	1	30	-99	-99	1	4	3	0	1	1	100	0.15	576639	573953	574550
565.28	1	10	2	751.7	1	2	6	1	2	1	101	0.15	581961	579375	580126
567.8665	1	31	-99	-99	1	2	6	1	2	1	101	0.15	581961	579375	580126
571.083	1	10	1	1476.7	1	4	6	0	1	1	102	0.15	589057	585178	586654
574.9627	1	30	-99	-99	1	4	6	0	1	1	102	0.15	589057	585178	586654
577.7481	1	10	2	555.6	1	5	7	1	2	1	103	0.15	594512	591843	592398
580.4175	1	31	-99	-99	1	5	7	1	2	1	103	0.15	594512	591843	592398
583.435	1	10	1	652.7	1	5	3	0	1	1	104	0.15	600365	597530	598182
586.2702	1	30	-99	-99	1	5	3	0	1	1	104	0.15	600365	597530	598182
589.4536	1	10	2	522.1	1	4	7	1	2	1	105	0.15	606068	603548	604070
591.9737	1	31	-99	-99	1	4	7	1	2	1	105	0.15	606068	603548	604070
595.0576	1	10	1	742.1	1	4	4	0	1	1	106	0.15	611954	609152	609894
597.8596	1	30	-99	-99	1	4	4	0	1	1	106	0.15	611954	609152	609894
600.645	1	10	2	298.7	1	3	8	0	2	1	107	0.15	616796	614740	615038
602.7009	1	30	-99	-99	1	3	8	0	2	1	107	0.15	616796	614740	615038
605.7351	1	10	2	272.6	1	2	6	0	2	1	108	0.15	622101	619830	620102
608.0065	1	30	-99	-99	1	2	6	0	2	1	108	0.15	622101	619830	620102
610.8085	1	10	2	239.2	1	8	8	1	2	1	109	0.15	627523	624903	625142
613.4282	1	31	-99	-99	1	8	8	1	2	1	109	0.15	627523	624903	625142
616.1639	1	10	1	283.8	1	7	8	0	1	1	110	0.15	632845	630259	630542
618.7503	1	30	-99	-99	1	7	8	0	1	1	110	0.15	632845	630259	630542
621.5523	1	10	2	855.4	1	3	7	1	2	1	111	0.15	638035	635647	636502
623.9399	1	31	-99	-99	1	3	7	1	2	1	111	0.15	638035	635647	636502
627.2227	1	10	1	881	1	5	2	0	1	1	112	0.15	644385	641317	642198
630.29	1	30	-99	-99	1	5	2	0	1	1	112	0.15	644385	641317	642198
633.6889	1	10	1	670.8	1	8	4	0	1	1	113	0.15	650436	647784	648454
636.3417	1	30	-99	-99	1	8	4	0	1	1	113	0.15	650436	647784	648454
639.7571	1	10	1	1250.6	1	4	5	0	1	1	114	0.15	657135	653852	655102
643.04	1	30	-99	-99	1	4	5	0	1	1	114	0.15	657135	653852	655102
645.9415	1	10	2	1130.2	1	6	2	0	2	1	115	0.15	663203	660036	661166
649.1082	1	30	-99	-99	1	6	2	0	2	1	115	0.15	663203	660036	661166
652.2418	1	10	2	269.9	1	4	5	0	2	0	116	0.85	668426	666337	666606
654.3309	1	30	-99	-99	1	4	5	0	2	0	116	0.85	668426	666337	666606
657.05	1	10	2	221.7	1	7	3	0	2	0	117	0.85	673118	671145	671366
659.023	1	30	-99	-99	1	7	3	0	2	0	117	0.85	673118	671145	671366
662.1898	1	10	2	305.9	1	5	6	0	2	0	118	0.85	679103	676285	676590
665.0084	1	30	-99	-99	1	5	6	0	2	0	118	0.85	679103	676285	676590
668.1089	1	10	1	322.8	1	4	3	1	1	0	119	0.85	684740	682204	682526
670.6456	1	31	-99	-99	1	4	3	1	1	0	119	0.85	684740	682204	682526
673.6134	1	10	1	666.3	1	4	4	0	1	0	120	0.85	690494	687708	688374
676.3988	1	30	-99	-99	1	4	4	0	1	0	120	0.85	690494	687708	688374
679.0682	1	10	2	411.5	1	2	3	0	2	0	121	0.85	695318	693163	693574
681.2236	1	30	-99	-99	1	2	3	0	2	0	121	0.85	695318	693163	693574
683.7935	1	10	2	270.2	1	8	5	0	2	0	122	0.85	700442	697888	698158
686.3468	1	30	-99	-99	1	8	5	0	2	0	122	0.85	700442	697888	698158
689.4141	1	10	2	385.6	1	6	5	0	2	0	123	0.85	705598	703509	703894
691.5032	1	30	-99	-99	1	6	5	0	2	0	123	0.85	705598	703509	703894
694.6865	1	10	2	225.2	1	6	5	0	2	0	124	0.85	710605	708781	709006
696.5103	1	30	-99	-99	1	6	5	0	2	0	124	0.85	710605	708781	709006
699.5444	1	10	1	479.3	1	5	8	1	1	0	125	0.85	716557	713639	714118
702.4625	1	31	-99	-99	1	5	8	1	1	0	125	0.85	716557	713639	714118
705.7454	1	10	1	366.3	1	5	6	1	1	0	126	0.85	722145	719840	720206
708.05	1	31	-99	-99	1	5	6	1	1	0	126	0.85	722145	719840	720206
711.2831	1	10	2	452.6	1	4	6	0	2	0	127	0.85	727964	725378	725830
713.8695	1	30	-99	-99	1	4	6	0	2	0	127	0.85	727964	725378	725830
717.2021	1	10	2	365.6	1	4	5	0	2	0	128	0.85	733668	731297	731662
719.573	1	30	-99	-99	1	4	5	0	2	0	128	0.85	733668	731297	731662
722.4745	1	10	2	333.2	1	4	2	0	2	0	129	0.85	739006	736569	736902
724.9118	1	30	-99	-99	1	4	2	0	2	0	129	0.85	739006	736569	736902
727.6806	1	10	1	543.1	1	8	6	1	1	0	130	0.85	744279	741775	742318
730.1842	1	31	3	2623.6	1	8	6	1	1	0	130	0.85	744279	741775	742318
