onset	duration	value	response	rt	good	Bd1	Bd2	F	Resp	buena	nt	prob	ttF	ttp	ttr
1.0189	1	10	1	1089.1	1	4	4	0	1	1	1	0.25	20183	16750	17840
4.4509	1	30	-99	-99	1	4	4	0	1	1	1	0.25	20183	16750	17840
7.7172	1	10	1	798.8	1	3	3	0	1	1	2	0.25	25820	23449	24248
10.0881	1	30	-99	-99	1	3	3	0	1	1	2	0.25	25820	23449	24248
13.1222	1	10	2	929.9	1	3	5	1	2	1	3	0.25	32037	28854	29784
16.3056	1	31	-99	-99	1	3	5	1	2	1	3	0.25	32037	28854	29784
19.1242	1	10	2	743.8	1	3	8	1	2	1	4	0.25	37658	34856	35600
21.9262	1	31	-99	-99	1	3	8	1	2	1	4	0.25	37658	34856	35600
24.9272	1	10	2	1060.8	1	7	5	1	2	1	5	0.25	44008	40659	41720
28.2763	1	31	-99	-99	1	7	5	1	2	1	5	0.25	44008	40659	41720
31.2607	1	10	2	1055.3	1	3	5	1	2	1	6	0.25	50474	46992	48048
34.7425	1	31	-99	-99	1	3	5	1	2	1	6	0.25	50474	46992	48048
37.3787	1	10	2	937.3	1	8	4	1	2	1	7	0.25	56459	53110	54048
40.7279	1	31	-99	-99	1	8	4	1	2	1	7	0.25	56459	53110	54048
43.7454	1	10	2	626.7	1	6	5	0	2	1	8	0.25	62113	59477	60104
46.3816	1	30	-99	-99	1	6	5	0	2	1	8	0.25	62113	59477	60104
49.0676	1	10	2	776.4	1	3	6	0	2	1	9	0.25	68016	64799	65576
52.2841	1	30	-99	-99	1	3	6	0	2	1	9	0.25	68016	64799	65576
55.3183	1	10	1	629.8	1	8	8	1	1	1	10	0.25	73272	71050	71680
57.54	1	31	-99	-99	1	8	8	1	1	1	10	0.25	73272	71050	71680
60.0767	1	10	1	895.3	1	2	3	0	1	1	11	0.25	78726	75808	76704
62.9948	1	30	-99	-99	1	2	3	0	1	1	11	0.25	78726	75808	76704
66.261	1	10	2	567.1	1	8	7	0	2	1	12	0.25	84463	81993	82560
68.7314	1	30	-99	-99	1	8	7	0	2	1	12	0.25	84463	81993	82560
71.9811	1	10	2	479	1	4	7	1	2	1	13	0.25	90034	87713	88192
74.3023	1	31	-99	-99	1	4	7	1	2	1	13	0.25	90034	87713	88192
77.7675	1	10	2	700.6	1	4	7	1	2	1	14	0.25	96251	93499	94200
80.5198	1	31	-99	-99	1	4	7	1	2	1	14	0.25	96251	93499	94200
83.4545	1	10	2	717.6	1	7	7	1	2	1	15	0.25	101806	99186	99904
86.0741	1	31	-99	-99	1	7	7	1	2	1	15	0.25	101806	99186	99904
89.5227	1	10	2	865.4	1	7	4	1	2	1	16	0.25	108355	105254	106120
92.6232	1	31	-99	-99	1	7	4	1	2	1	16	0.25	108355	105254	106120
96.0552	1	10	2	892.9	1	6	3	0	2	1	17	0.25	114688	111787	112680
98.9567	1	30	1	2871.4	1	6	3	0	2	1	17	0.25	114688	111787	112680
101.908	1	10	1	1512.1	1	6	3	0	1	1	18	0.25	120790	117640	119152
105.0581	1	30	-99	-99	1	6	3	0	1	1	18	0.25	120790	117640	119152
107.628	1	10	2	536.1	1	8	5	1	2	1	19	0.25	125996	123360	123896
110.2643	1	31	-99	-99	1	8	5	1	2	1	19	0.25	125996	123360	123896
112.8341	1	10	2	690	1	3	4	1	2	0	20	0.75	130787	128566	129256
115.0559	1	31	-99	-99	1	3	4	1	2	0	20	0.75	130787	128566	129256
118.289	1	10	2	659.1	1	7	5	0	2	0	21	0.75	136292	134021	134680
120.5604	1	30	-99	-99	1	7	5	0	2	0	21	0.75	136292	134021	134680
123.1469	1	10	1	633.2	1	2	2	1	1	0	22	0.75	141299	138878	139512
125.5676	1	31	-99	-99	1	2	2	1	1	0	22	0.75	141299	138878	139512
128.4027	1	10	1	769.4	1	4	6	1	1	0	23	0.75	147401	144134	144904
131.669	1	31	-99	-99	1	4	6	1	1	0	23	0.75	147401	144134	144904
134.8358	1	10	1	712.3	1	5	5	1	1	0	24	0.75	153585	150567	151280
137.8533	1	31	-99	-99	1	5	5	1	1	0	24	0.75	153585	150567	151280
141.2854	1	10	1	934.7	1	3	2	1	1	0	25	0.75	159836	157017	157952
144.104	1	31	-99	-99	1	3	2	1	1	0	25	0.75	159836	157017	157952
147.4863	1	10	1	973.8	1	8	3	1	1	0	26	0.75	166683	163218	164192
150.9515	1	31	-99	-99	1	8	3	1	1	0	26	0.75	166683	163218	164192
154.3172	1	10	1	774.9	1	2	6	1	1	0	27	0.75	172735	170049	170824
157.0032	1	31	-99	-99	1	2	6	1	1	0	27	0.75	172735	170049	170824
159.656	1	10	1	1108.1	1	8	3	1	1	0	28	0.75	178057	175388	176496
162.3254	1	31	-99	-99	1	8	3	1	1	0	28	0.75	178057	175388	176496
164.8787	1	10	1	997.5	1	6	8	1	1	0	29	0.75	183462	180610	181608
167.7304	1	31	-99	-99	1	6	8	1	1	0	29	0.75	183462	180610	181608
170.9635	1	10	1	1128.7	1	6	3	1	1	0	30	0.75	189613	186695	187824
173.8816	1	31	-99	-99	1	6	3	1	1	0	30	0.75	189613	186695	187824
177.0649	1	10	1	1027.2	1	8	4	0	1	0	31	0.75	196278	192797	193824
180.5467	1	30	2	5353.5	1	8	4	0	1	0	31	0.75	196278	192797	193824
188.472	1	10	1	972.2	1	8	5	0	1	0	32	0.15	206939	204204	205176
191.2077	1	30	-99	-99	1	8	5	0	1	0	32	0.15	206939	204204	205176
194.6563	1	10	2	747.9	1	4	8	1	2	0	33	0.15	213240	210388	211136
197.508	1	31	-99	-99	1	4	8	1	2	0	33	0.15	213240	210388	211136
200.4261	1	10	2	1170.1	1	6	7	1	2	0	34	0.15	219374	216158	217328
203.6426	1	31	-99	-99	1	6	7	1	2	0	34	0.15	219374	216158	217328
206.6933	1	10	2	1918.9	1	8	5	1	2	0	35	0.15	226553	222425	224344
210.8218	1	31	-99	-99	1	8	5	1	2	0	35	0.15	226553	222425	224344
213.4414	1	10	2	970.8	1	4	7	1	2	0	36	0.15	231793	229173	230144
216.061	1	31	-99	-99	1	4	7	1	2	0	36	0.15	231793	229173	230144
219.377	1	10	2	819.2	1	3	3	1	2	0	37	0.15	238275	235109	235928
222.5438	1	31	-99	-99	1	3	3	1	2	0	37	0.15	238275	235109	235928
225.1137	1	10	2	666.5	1	6	4	1	2	0	38	0.15	243879	240845	241512
228.1478	1	31	-99	-99	1	6	4	1	2	0	38	0.15	243879	240845	241512
231.6462	1	10	2	590	1	8	8	1	2	0	39	0.15	249500	247378	247968
233.7684	1	31	-99	-99	1	8	8	1	2	0	39	0.15	249500	247378	247968
236.7694	1	10	2	930.8	1	4	3	1	2	0	40	0.15	255353	252501	253432
239.6212	1	31	2	2527	1	4	3	1	2	0	40	0.15	255353	252501	253432
242.4895	1	10	2	2898.7	1	6	6	1	2	0	41	0.15	262863	258221	261120
247.1319	1	31	-99	-99	1	6	6	1	2	0	41	0.15	262863	258221	261120
249.9339	1	10	2	774.3	1	8	3	1	2	0	42	0.15	268484	265665	266440
252.7525	1	31	-99	-99	1	8	3	1	2	0	42	0.15	268484	265665	266440
256.2674	1	10	2	872.8	1	2	4	1	2	0	43	0.15	274735	271999	272872
259.0031	1	31	-99	-99	1	2	4	1	2	0	43	0.15	274735	271999	272872
262.2196	1	10	2	576.6	1	3	5	1	2	0	44	0.15	280239	277951	278528
264.5077	1	31	-99	-99	1	3	5	1	2	0	44	0.15	280239	277951	278528
267.1439	1	10	2	836.3	1	5	8	1	2	0	45	0.15	285910	282875	283712
270.178	1	31	-99	-99	1	5	8	1	2	0	45	0.15	285910	282875	283712
273.0795	1	10	2	1020.7	1	8	8	1	2	0	46	0.15	292227	288811	289832
276.495	1	31	-99	-99	1	8	8	1	2	0	46	0.15	292227	288811	289832
279.181	1	10	2	791.2	1	8	7	1	2	0	47	0.15	298113	294913	295704
282.3809	1	31	-99	-99	1	8	7	1	2	0	47	0.15	298113	294913	295704
285.5477	1	10	2	768.6	1	4	3	0	2	0	48	0.15	303982	301279	302048
288.2502	1	30	-99	-99	1	4	3	0	2	0	48	0.15	303982	301279	302048
291.102	1	10	1	598.2	1	4	6	0	1	0	49	0.15	309387	306834	307432
293.6553	1	30	-99	-99	1	4	6	0	1	0	49	0.15	309387	306834	307432
297.0044	1	10	2	671.8	1	5	2	1	2	0	50	0.15	314958	312736	313408
299.2261	1	31	-99	-99	1	5	2	1	2	0	50	0.15	314958	312736	313408
301.9452	1	10	2	563.1	1	7	6	1	2	1	51	0.85	319799	317677	318240
304.0675	1	31	-99	-99	1	7	6	1	2	1	51	0.85	319799	317677	318240
306.8529	1	10	2	639.4	1	7	4	0	2	1	52	0.85	325072	322585	323224
309.3399	1	30	-99	-99	1	7	4	0	2	1	52	0.85	325072	322585	323224
312.1419	1	10	1	678.3	1	2	4	1	1	1	53	0.85	330278	327874	328552
314.546	1	31	-99	-99	1	2	4	1	1	1	53	0.85	330278	327874	328552
317.5138	1	10	1	770.5	1	8	5	1	1	1	54	0.85	335865	333245	334016
320.1335	1	31	-99	-99	1	8	5	1	1	1	54	0.85	335865	333245	334016
323.2505	1	10	1	1009.7	1	7	6	1	1	1	55	0.85	341950	338982	339992
326.2183	1	31	-99	-99	1	7	6	1	1	1	55	0.85	341950	338982	339992
329.4348	1	10	1	457.5	1	5	7	1	1	1	56	0.85	347488	345166	345624
331.756	1	31	-99	-99	1	5	7	1	1	1	56	0.85	347488	345166	345624
335.1715	1	10	1	752.8	1	8	2	1	1	1	57	0.85	354136	350903	351656
338.4046	1	31	-99	-99	1	8	2	1	1	1	57	0.85	354136	350903	351656
341.4719	1	10	1	508.4	1	7	2	0	1	1	58	0.85	360122	357203	357712
344.39	1	30	-99	-99	1	7	2	0	1	1	58	0.85	360122	357203	357712
347.6065	1	10	2	1477.8	1	4	6	0	2	1	59	0.85	366439	363338	364816
350.7069	1	30	-99	-99	1	4	6	0	2	1	59	0.85	366439	363338	364816
353.8405	1	10	1	739.8	1	2	3	0	1	1	60	0.85	372175	369572	370312
356.4436	1	30	-99	-99	1	2	3	0	1	1	60	0.85	372175	369572	370312
359.8093	1	10	1	523	1	3	5	1	1	1	61	0.85	377995	375541	376064
362.2632	1	31	-99	-99	1	3	5	1	1	1	61	0.85	377995	375541	376064
364.8496	1	10	1	682.7	1	4	4	1	1	1	62	0.85	383350	380581	381264
367.6185	1	31	-99	-99	1	4	4	1	1	1	62	0.85	383350	380581	381264
370.6692	1	10	1	1015.1	1	6	7	1	1	1	63	0.85	389617	386401	387416
373.8857	1	31	2	5574.6	1	6	7	1	1	1	63	0.85	389617	386401	387416
381.3301	1	10	1	1186.2	1	8	6	0	1	1	64	0.15	400262	397062	398248
384.5301	1	30	-99	-99	1	8	6	0	1	1	64	0.15	400262	397062	398248
387.3984	1	10	2	725.9	1	2	3	1	2	1	65	0.15	405932	403130	403856
390.2004	1	31	-99	-99	1	2	3	1	2	1	65	0.15	405932	403130	403856
393.218	1	10	2	602.3	1	2	2	1	2	1	66	0.15	411735	408950	409552
396.0034	1	31	-99	-99	1	2	2	1	2	1	66	0.15	411735	408950	409552
398.7225	1	10	2	881.8	1	8	8	1	2	1	67	0.15	417107	414454	415336
401.3753	1	31	-99	-99	1	8	8	1	2	1	67	0.15	417107	414454	415336
404.7079	1	10	2	560.4	1	8	5	1	2	1	68	0.15	423109	420439	421000
407.3773	1	31	2	1339	1	8	5	1	2	1	68	0.15	423109	420439	421000
410.6269	1	10	2	1257.4	1	8	3	1	2	1	69	0.15	430106	426359	427616
414.374	1	31	-99	-99	1	8	3	1	2	1	69	0.15	430106	426359	427616
416.9771	1	10	2	779.2	1	2	8	1	2	1	70	0.15	435378	432709	433488
419.6464	1	31	-99	-99	1	2	8	1	2	1	70	0.15	435378	432709	433488
422.6308	1	10	2	597.5	1	6	5	1	2	1	71	0.15	441380	438362	438960
425.6484	1	31	-99	-99	1	6	5	1	2	1	71	0.15	441380	438362	438960
428.2017	1	10	2	786.6	1	7	8	1	2	1	72	0.15	446238	443933	444720
430.5063	1	31	-99	-99	1	7	8	1	2	1	72	0.15	446238	443933	444720
433.9881	1	10	2	768.2	1	4	6	1	2	1	73	0.15	452787	449720	450488
437.0554	1	31	-99	-99	1	4	6	1	2	1	73	0.15	452787	449720	450488
440.4543	1	10	2	758.1	1	7	7	1	2	1	74	0.15	459320	456186	456944
443.5879	1	31	-99	-99	1	7	7	1	2	1	74	0.15	459320	456186	456944
446.6552	1	10	2	637.2	1	6	6	1	2	1	75	0.15	464774	462387	463024
449.0427	1	31	-99	-99	1	6	6	1	2	1	75	0.15	464774	462387	463024
452.0934	1	10	2	774.9	1	3	5	1	2	1	76	0.15	470876	467825	468600
455.1441	1	31	-99	-99	1	3	5	1	2	1	76	0.15	470876	467825	468600
458.427	1	10	2	705.4	1	7	6	1	2	1	77	0.15	477110	474159	474864
461.3782	1	31	-99	-99	1	7	6	1	2	1	77	0.15	477110	474159	474864
464.7274	1	10	2	853	1	8	7	1	2	1	78	0.15	483360	480459	481312
467.6289	1	31	-99	-99	1	8	7	1	2	1	78	0.15	483360	480459	481312
471.1272	1	10	2	645.2	1	5	3	1	2	1	79	0.15	489197	486859	487504
473.465	1	31	-99	-99	1	5	3	1	2	1	79	0.15	489197	486859	487504
476.4825	1	10	2	793.9	1	5	6	0	2	0	80	0.85	495116	492214	493008
479.384	1	30	-99	-99	1	5	6	0	2	0	80	0.85	495116	492214	493008
482.2358	1	10	2	760.6	1	6	8	1	2	0	81	0.85	501035	497967	498728
485.3031	1	31	-99	-99	1	6	8	1	2	0	81	0.85	501035	497967	498728
488.6522	1	10	2	744.2	1	6	4	0	2	0	82	0.85	507385	504384	505128
491.6532	1	30	-99	-99	1	6	4	0	2	0	82	0.85	507385	504384	505128
494.4221	1	10	1	790.3	1	6	8	1	1	0	83	0.85	512491	510154	510944
496.7598	1	31	-99	-99	1	6	8	1	1	0	83	0.85	512491	510154	510944
499.7442	1	10	1	764.2	1	2	2	1	1	0	84	0.85	518377	515476	516240
502.6457	1	31	-99	-99	1	2	2	1	1	0	84	0.85	518377	515476	516240
505.8788	1	10	1	685.6	1	4	6	1	1	0	85	0.85	524363	521610	522296
508.6311	1	31	-99	-99	1	4	6	1	1	0	85	0.85	524363	521610	522296
511.9305	1	10	1	769.9	1	8	2	0	1	0	86	0.85	530166	527662	528432
514.4341	1	30	-99	-99	1	8	2	0	1	0	86	0.85	530166	527662	528432
517.0537	1	10	1	630.7	1	3	2	1	1	0	87	0.85	535471	532785	533416
519.7397	1	31	-99	-99	1	3	2	1	1	0	87	0.85	535471	532785	533416
522.4422	1	10	1	730.2	1	8	7	0	1	0	88	0.85	540711	538174	538904
524.979	1	30	-99	-99	1	8	7	0	1	0	88	0.85	540711	538174	538904
527.6815	1	10	2	498.9	1	2	8	0	2	0	89	0.85	546132	543413	543912
530.4006	1	30	-99	-99	1	2	8	0	2	0	89	0.85	546132	543413	543912
533.4845	1	10	2	1127.9	1	8	7	0	2	0	90	0.85	552184	549216	550344
536.4523	1	30	-99	-99	1	8	7	0	2	0	90	0.85	552184	549216	550344
539.6854	1	10	1	559	1	3	3	1	1	0	91	0.85	557655	555417	555976
541.9237	1	31	-99	-99	1	3	3	1	1	0	91	0.85	557655	555417	555976
544.8583	1	10	1	722.1	1	8	5	1	1	0	92	0.85	563309	560590	561312
547.5774	1	31	-99	-99	1	8	5	1	1	0	92	0.85	563309	560590	561312
550.4955	1	10	1	1132.9	1	5	3	1	1	0	93	0.85	569510	566227	567360
553.7783	1	31	-99	-99	1	5	3	1	1	0	93	0.85	569510	566227	567360
556.5638	1	10	1	880.6	1	4	5	1	1	0	94	0.85	574981	572295	573176
559.2497	1	31	-99	-99	1	4	5	1	1	0	94	0.85	574981	572295	573176
562.0352	1	10	1	793.2	1	5	6	1	1	0	95	0.85	580950	577767	578560
565.2185	1	31	-99	-99	1	5	6	1	1	0	95	0.85	580950	577767	578560
568.1366	1	10	1	939.8	1	3	4	0	1	0	96	0.85	586853	583868	584808
571.121	1	30	3	6611.5	1	3	4	0	1	0	96	0.85	586853	583868	584808
578.7478	1	10	1	776.6	1	5	5	1	1	0	97	0.25	597199	594479	595256
581.4669	1	31	-99	-99	1	5	5	1	1	0	97	0.25	597199	594479	595256
584.2026	1	10	1	633.8	1	2	2	0	1	0	98	0.25	602637	599934	600568
586.9051	1	30	-99	-99	1	2	2	0	1	0	98	0.25	602637	599934	600568
589.9558	1	10	1	608.7	1	8	5	0	1	0	99	0.25	608722	605687	606296
592.99	1	30	-99	-99	1	8	5	0	1	0	99	0.25	608722	605687	606296
596.5049	1	10	2	651.6	1	7	2	1	2	0	100	0.25	614790	612237	612888
599.0582	1	31	-99	-99	1	7	2	1	2	0	100	0.25	614790	612237	612888
601.6447	1	10	2	783.8	1	8	4	1	2	0	101	0.25	619946	617376	618160
604.2146	1	31	-99	-99	1	8	4	1	2	0	101	0.25	619946	617376	618160
607.0829	1	10	2	801.6	1	5	6	1	2	0	102	0.25	625816	622815	623616
610.0839	1	31	2	1880.6	1	5	6	1	2	0	102	0.25	625816	622815	623616
613.0352	1	10	2	1257.3	1	2	3	1	2	0	103	0.25	631801	628767	630024
616.0693	1	31	-99	-99	1	2	3	1	2	0	103	0.25	631801	628767	630024
618.8381	1	10	2	1230.4	1	4	6	1	2	0	104	0.25	637836	634570	635800
622.1044	1	31	-99	-99	1	4	6	1	2	0	104	0.25	637836	634570	635800
625.0722	1	10	2	940.3	1	4	7	1	2	0	105	0.25	643689	640804	641744
627.9571	1	31	-99	-99	1	4	7	1	2	0	105	0.25	643689	640804	641744
631.1736	1	10	2	662.9	1	5	6	1	2	0	106	0.25	650055	646905	647568
634.3238	1	31	-99	-99	1	5	6	1	2	0	106	0.25	650055	646905	647568
637.6067	1	10	2	789.8	1	4	6	1	2	0	107	0.25	655693	653338	654128
639.961	1	31	-99	-99	1	4	6	1	2	0	107	0.25	655693	653338	654128
643.0946	1	10	2	933.9	1	7	5	0	2	0	108	0.25	662126	658826	659760
646.394	1	30	-99	-99	1	7	5	0	2	0	108	0.25	662126	658826	659760
649.2292	1	10	1	559.3	1	8	6	0	1	0	109	0.25	667929	664961	665520
652.197	1	30	-99	-99	1	8	6	0	1	0	109	0.25	667929	664961	665520
655.5296	1	10	1	690.9	1	5	3	0	1	0	110	0.25	673980	671261	671952
658.2487	1	30	-99	-99	1	5	3	0	1	0	110	0.25	673980	671261	671952
660.8683	1	10	1	1840.2	1	2	5	0	1	0	111	0.25	680297	676600	678440
664.5657	1	30	-99	-99	1	2	5	0	1	0	111	0.25	680297	676600	678440
667.4009	1	10	2	531.6	1	6	2	1	2	0	112	0.25	685487	683132	683664
669.7552	1	31	-99	-99	1	6	2	1	2	0	112	0.25	685487	683132	683664
672.5572	1	10	2	895.3	1	2	8	0	2	0	113	0.25	691290	688289	689184
675.5582	1	30	-99	-99	1	2	8	0	2	0	113	0.25	691290	688289	689184
678.9239	1	10	1	792.6	1	3	7	1	1	1	114	0.75	697540	694656	695448
681.8088	1	31	-99	-99	1	3	7	1	1	1	114	0.75	697540	694656	695448
684.3787	1	10	1	593.9	1	7	4	0	1	1	115	0.75	702697	700110	700704
686.9652	1	30	-99	-99	1	7	4	0	1	1	115	0.75	702697	700110	700704
689.8667	1	10	2	705.8	1	7	6	0	2	1	116	0.75	707969	705598	706304
692.2376	1	30	-99	-99	1	7	6	0	2	1	116	0.75	707969	705598	706304
695.62	1	10	2	816.5	1	2	7	0	2	1	117	0.75	713905	711352	712168
698.1733	1	30	-99	-99	1	2	7	0	2	1	117	0.75	713905	711352	712168
700.909	1	10	1	543.6	1	8	4	1	1	1	118	0.75	719310	716641	717184
703.5783	1	31	-99	-99	1	8	4	1	1	1	118	0.75	719310	716641	717184
706.3638	1	10	1	648.7	1	4	3	0	1	1	119	0.75	724732	722095	722744
709	1	30	-99	-99	1	4	3	0	1	1	119	0.75	724732	722095	722744
712.432	1	10	2	1372.5	1	3	7	0	2	1	120	0.75	732027	728164	729536
716.2952	1	30	-99	-99	1	3	7	0	2	1	120	0.75	732027	728164	729536
719.5614	1	10	1	899.2	1	2	8	0	1	1	121	0.75	738244	735293	736192
722.5127	1	30	-99	-99	1	2	8	0	1	1	121	0.75	738244	735293	736192
725.9945	1	10	2	2338.1	1	3	4	0	2	1	122	0.75	745755	741726	744064
730.0234	1	30	-99	-99	1	3	4	0	2	1	122	0.75	745755	741726	744064
732.6596	1	10	1	977	1	3	8	0	1	1	123	0.75	751608	748391	749368
735.8761	1	30	-99	-99	1	3	8	0	1	1	123	0.75	751608	748391	749368
739.2916	1	10	1	713	1	5	4	1	1	1	124	0.75	757809	755023	755736
742.077	1	31	-99	-99	1	5	4	1	1	1	124	0.75	757809	755023	755736
744.8293	1	10	1	1303.3	1	2	3	1	1	1	125	0.75	764092	760561	761864
748.3608	1	31	2	6179.8	1	2	3	1	1	1	125	0.75	764092	760561	761864
