onset	duration	value	response	rt	good	Bd1	Bd2	F	Resp	buena	nt	prob	ttF	ttp	ttr
1.0194	1	10	-99	-99	1	3	7	1	1	1	1	0.85	26549	9903	24519
17.6657	1	31	1	882.2	1	3	7	1	1	1	1	0.85	26549	9903	24519
20.8656	1	10	1	1250.3	1	3	6	1	1	1	2	0.85	32584	29749	30999
23.7008	1	31	1	775.1	1	3	6	1	1	1	2	0.85	32584	29749	30999
26.6023	1	10	1	1089.6	1	5	8	1	1	1	3	0.85	38901	35486	36575
30.0178	1	31	1	1738.1	1	5	8	1	1	1	3	0.85	38901	35486	36575
33.1182	1	10	1	933.7	1	3	3	1	1	1	4	0.85	44505	42002	42935
35.6218	1	31	-99	-99	1	3	3	1	1	1	4	0.85	44505	42002	42935
38.258	1	10	1	489.9	1	3	7	1	1	1	5	0.85	49612	47142	47631
40.7284	1	31	-99	-99	1	3	7	1	1	1	5	0.85	49612	47142	47631
43.5802	1	10	1	447.7	1	5	2	1	1	1	6	0.85	54520	52464	52911
45.6361	1	31	-99	-99	1	5	2	1	1	1	6	0.85	54520	52464	52911
48.7365	1	10	1	1059.4	1	2	3	1	1	1	7	0.85	60654	57620	58679
51.7707	1	31	-99	-99	1	2	3	1	1	1	7	0.85	60654	57620	58679
55.0203	1	10	1	847.6	1	7	8	1	1	1	8	0.85	66905	63904	64751
58.0213	1	31	-99	-99	1	7	8	1	1	1	8	0.85	66905	63904	64751
60.7238	1	10	1	792.1	1	2	4	1	1	1	9	0.85	72177	69607	70399
63.2937	1	31	-99	-99	1	2	4	1	1	1	9	0.85	72177	69607	70399
66.8087	1	10	1	459.2	1	8	6	0	1	1	10	0.85	78428	75692	76151
69.5444	1	30	-99	-99	1	8	6	0	1	1	10	0.85	78428	75692	76151
72.2138	1	10	2	502.1	1	7	8	0	2	1	11	0.85	83468	81097	81599
74.5847	1	30	-99	-99	1	7	8	0	2	1	11	0.85	83468	81097	81599
77.9173	1	10	1	550.6	1	3	3	1	1	1	12	0.85	89868	86801	87351
80.9846	1	31	1	1235.3	1	3	3	1	1	1	12	0.85	89868	86801	87351
84.4663	1	10	1	825.6	1	2	8	0	1	1	13	0.85	96467	93350	94175
87.5834	1	30	-99	-99	1	2	8	0	1	1	13	0.85	96467	93350	94175
90.6341	1	10	1	841.8	1	7	2	1	1	1	14	0.85	102552	99518	100359
93.6682	1	31	-99	-99	1	7	2	1	1	1	14	0.85	102552	99518	100359
96.2547	1	10	1	333.2	1	3	7	1	1	1	15	0.85	107575	105138	105471
98.6919	1	31	-99	-99	1	3	7	1	1	1	15	0.85	107575	105138	105471
101.4276	1	10	1	656.3	1	3	4	1	1	1	16	0.85	112616	110311	110967
103.7323	1	31	-99	-99	1	3	4	1	1	1	16	0.85	112616	110311	110967
106.783	1	10	1	964.9	1	4	3	0	1	0	17	0.15	118253	115666	116631
109.3694	1	30	-99	-99	1	4	3	0	1	0	17	0.15	118253	115666	116631
112.0388	1	10	1	685.1	1	6	7	0	1	0	18	0.15	123210	120922	121607
114.3268	1	30	-99	-99	1	6	7	0	1	0	18	0.15	123210	120922	121607
117.8252	1	10	1	650.7	1	3	2	0	1	0	19	0.15	129096	126709	127359
120.2127	1	30	-99	-99	1	3	2	0	1	0	19	0.15	129096	126709	127359
123.2966	1	10	2	1123.4	1	6	7	1	2	0	20	0.15	135347	132180	133303
126.4634	1	31	-99	-99	1	6	7	1	2	0	20	0.15	135347	132180	133303
129.7794	1	10	2	568.6	1	8	7	0	2	0	21	0.15	140951	138663	139231
132.0674	1	30	-99	-99	1	8	7	0	2	0	21	0.15	140951	138663	139231
135.0518	1	10	1	488.1	1	4	2	0	1	0	22	0.15	146737	143935	144423
137.8538	1	30	-99	-99	1	4	2	0	1	0	22	0.15	146737	143935	144423
140.7885	1	10	1	391.4	1	8	5	0	1	0	23	0.15	151861	149672	150063
142.977	1	30	-99	-99	1	8	5	0	1	0	23	0.15	151861	149672	150063
145.5967	1	10	1	335.2	1	8	5	0	1	0	24	0.15	156437	154480	154815
147.5531	1	30	2	2018.8	1	8	5	0	1	0	24	0.15	156437	154480	154815
150.1561	1	10	2	455.8	1	3	6	1	2	0	25	0.15	161775	159040	159495
152.8918	1	31	-99	-99	1	3	6	1	2	0	25	0.15	161775	159040	159495
155.5944	1	10	2	529.6	1	8	2	1	2	0	26	0.15	166782	164478	165007
157.899	1	31	-99	-99	1	8	2	1	2	0	26	0.15	166782	164478	165007
161.3808	1	10	2	471.1	1	4	8	0	2	0	27	0.15	172420	170264	170735
163.5362	1	30	-99	-99	1	4	8	0	2	0	27	0.15	172420	170264	170735
166.3713	1	10	1	752.6	1	7	5	0	1	0	28	0.15	178090	175255	176007
169.2065	1	30	-99	-99	1	7	5	0	1	0	28	0.15	178090	175255	176007
172.5059	1	10	2	506	1	6	7	1	2	0	29	0.15	184092	181389	181895
175.2084	1	31	3	4859.6	1	6	7	1	2	0	29	0.15	184092	181389	181895
181.0943	1	10	1	1213.6	1	6	4	0	1	0	30	0.25	193476	189978	191191
184.5927	1	30	-99	-99	1	6	4	0	1	0	30	0.25	193476	189978	191191
187.7097	1	10	2	582.3	1	4	8	1	2	0	31	0.25	199578	196593	197175
190.6941	1	31	-99	-99	1	4	8	1	2	0	31	0.25	199578	196593	197175
193.8775	1	10	2	590.5	1	8	8	0	2	0	32	0.25	205281	202761	203351
196.3976	1	30	-99	-99	1	8	8	0	2	0	32	0.25	205281	202761	203351
199.1665	1	10	2	1933.4	1	6	8	1	2	0	33	0.25	212411	208050	209983
203.527	1	31	-99	-99	1	6	8	1	2	0	33	0.25	212411	208050	209983
206.8928	1	10	2	1055.2	1	8	2	1	2	0	34	0.25	218976	215776	216831
210.0927	1	31	-99	-99	1	8	2	1	2	0	34	0.25	218976	215776	216831
212.6792	1	10	2	924.8	1	6	7	0	2	0	35	0.25	224066	221563	222487
215.1827	1	30	-99	-99	1	6	7	0	2	0	35	0.25	224066	221563	222487
218.1505	1	10	1	653.5	1	2	5	0	1	0	36	0.25	229803	227034	227687
220.9194	1	30	-99	-99	1	2	5	0	1	0	36	0.25	229803	227034	227687
223.8375	1	10	2	574.5	1	5	5	1	2	0	37	0.25	235440	232721	233295
226.5566	1	31	-99	-99	1	5	5	1	2	0	37	0.25	235440	232721	233295
229.6902	1	10	1	1793.8	1	4	2	0	1	0	38	0.25	242470	238574	240367
233.5865	1	30	-99	-99	1	4	2	0	1	0	38	0.25	242470	238574	240367
236.4548	1	10	2	965.1	1	7	8	1	2	0	39	0.25	248223	245338	246303
239.3397	1	31	-99	-99	1	7	8	1	2	0	39	0.25	248223	245338	246303
242.5728	1	10	2	2319.2	1	5	3	1	2	0	40	0.25	255319	251456	253775
246.436	1	31	-99	-99	1	5	3	1	2	0	40	0.25	255319	251456	253775
249.0556	1	10	2	764.4	1	6	5	1	2	0	41	0.25	260260	257939	258703
251.3768	1	31	-99	-99	1	6	5	1	2	0	41	0.25	260260	257939	258703
254.643	1	10	2	505	1	8	4	1	2	0	42	0.25	266262	263527	264031
257.3787	1	31	-99	-99	1	8	4	1	2	0	42	0.25	266262	263527	264031
260.5787	1	10	2	809.3	1	3	3	0	2	0	43	0.25	272762	269462	270272
263.8781	1	30	-99	-99	1	3	3	0	2	0	43	0.25	272762	269462	270272
266.6138	1	10	1	758.2	1	8	8	0	1	0	44	0.25	278001	275497	276255
269.1173	1	30	-99	-99	1	8	8	0	1	0	44	0.25	278001	275497	276255
272.2344	1	10	2	449.6	1	7	3	1	2	0	45	0.25	283555	281118	281567
274.6716	1	31	-99	-99	1	7	3	1	2	0	45	0.25	283555	281118	281567
277.6726	1	10	2	1227.4	1	6	5	1	2	1	46	0.75	290303	286556	287783
281.4197	1	31	-99	-99	1	6	5	1	2	1	46	0.75	290303	286556	287783
284.2051	1	10	2	406.9	1	5	6	0	2	1	47	0.75	295128	293089	293495
286.2444	1	30	-99	-99	1	5	6	0	2	1	47	0.75	295128	293089	293495
288.9138	1	10	2	386.2	1	5	2	0	2	1	48	0.75	299903	297797	298183
291.0195	1	30	-99	-99	1	5	2	0	2	1	48	0.75	299903	297797	298183
294.037	1	10	1	495	1	7	8	1	1	1	49	0.75	305308	302921	303415
296.4245	1	31	-99	-99	1	7	8	1	1	1	49	0.75	305308	302921	303415
299.011	1	10	1	497	1	3	4	1	1	1	50	0.75	310481	307895	308391
301.5975	1	31	-99	-99	1	3	4	1	1	1	50	0.75	310481	307895	308391
304.1342	1	10	1	509.8	1	5	2	1	1	1	51	0.75	315986	313018	313527
307.102	1	31	-99	-99	1	5	2	1	1	1	51	0.75	315986	313018	313527
309.9538	1	10	1	378.2	1	4	2	1	1	1	52	0.75	320860	318837	319215
311.9765	1	31	-99	-99	1	4	2	1	1	1	52	0.75	320860	318837	319215
315.0107	1	10	1	337.3	1	8	8	1	1	1	53	0.75	326729	323894	324231
317.8458	1	31	-99	-99	1	8	8	1	1	1	53	0.75	326729	323894	324231
320.6976	1	10	1	906.4	1	6	3	0	1	1	54	0.75	332433	329581	330487
323.5493	1	30	-99	-99	1	6	3	0	1	1	54	0.75	332433	329581	330487
326.9316	1	10	1	328.4	1	4	8	1	1	1	55	0.75	337689	335815	336143
328.8052	1	31	-99	-99	1	4	8	1	1	1	55	0.75	337689	335815	336143
331.7233	1	10	1	512.7	1	5	2	1	1	1	56	0.75	343492	340607	341119
334.6082	1	31	-99	-99	1	5	2	1	1	1	56	0.75	343492	340607	341119
337.5594	1	10	1	1012.6	1	4	7	1	1	1	57	0.75	349659	346443	347456
340.7759	1	31	-99	-99	1	4	7	1	1	1	57	0.75	349659	346443	347456
344.2909	1	10	1	857.1	1	3	2	0	1	1	58	0.75	355578	353174	354032
346.695	1	30	-99	-99	1	3	2	0	1	1	58	0.75	355578	353174	354032
349.3477	1	10	1	968.3	1	2	2	1	1	1	59	0.75	361531	358231	359200
352.6472	1	31	-99	-99	1	2	2	1	1	1	59	0.75	361531	358231	359200
356.0129	1	10	1	519.1	1	3	5	1	1	1	60	0.75	367649	364896	365415
358.7652	1	31	-99	-99	1	3	5	1	1	1	60	0.75	367649	364896	365415
361.6335	1	10	1	914.5	1	6	4	1	1	1	61	0.75	373253	370517	371431
364.3692	1	31	3	4234.8	1	6	4	1	1	1	61	0.75	373253	370517	371431
369.625	1	10	2	2211	1	7	2	0	2	0	62	0.75	383018	378509	380720
374.1348	1	30	-99	-99	1	7	2	0	2	0	62	0.75	383018	378509	380720
377.3679	1	10	1	660.1	1	8	8	0	1	0	63	0.75	389418	386251	386911
380.5347	1	30	-99	-99	1	8	8	0	1	0	63	0.75	389418	386251	386911
383.3035	1	10	2	540.5	1	7	4	0	2	0	64	0.75	394724	392187	392728
385.8402	1	30	-99	-99	1	7	4	0	2	0	64	0.75	394724	392187	392728
388.5593	1	10	2	492.7	1	5	8	0	2	0	65	0.75	400278	397443	397936
391.3945	1	30	1	3073.5	1	5	8	0	2	0	65	0.75	400278	397443	397936
394.8266	1	10	1	641.4	1	6	2	0	1	0	66	0.75	406479	403710	404352
397.5954	1	30	-99	-99	1	6	2	0	1	0	66	0.75	406479	403710	404352
400.7953	1	10	2	776.7	1	3	3	0	2	0	67	0.75	412398	409679	410456
403.5145	1	30	-99	-99	1	3	3	0	2	0	67	0.75	412398	409679	410456
406.2336	1	10	2	594.4	1	7	2	0	2	0	68	0.75	417820	415117	415712
408.9361	1	30	-99	-99	1	7	2	0	2	0	68	0.75	417820	415117	415712
411.7879	1	10	2	440.1	1	7	3	0	2	0	69	0.75	423291	420671	421112
414.4075	1	30	-99	-99	1	7	3	0	2	0	69	0.75	423291	420671	421112
417.5577	1	10	1	654.3	1	4	7	1	1	0	70	0.75	428961	426441	427095
420.0778	1	31	-99	-99	1	4	7	1	1	0	70	0.75	428961	426441	427095
423.4767	1	10	1	447.3	1	8	4	1	1	0	71	0.75	434764	432360	432808
425.8808	1	31	-99	-99	1	8	4	1	1	0	71	0.75	434764	432360	432808
428.8321	1	10	1	723.9	1	6	6	0	1	0	72	0.75	440733	437716	438440
431.8496	1	30	-99	-99	1	6	6	0	1	0	72	0.75	440733	437716	438440
434.519	1	10	1	613	1	6	3	1	1	0	73	0.75	446122	443402	444016
437.2381	1	31	-99	-99	1	6	3	1	1	0	73	0.75	446122	443402	444016
439.8412	1	10	1	1274.8	1	4	8	0	1	0	74	0.75	451742	448725	450000
442.8587	1	30	-99	-99	1	4	8	0	1	0	74	0.75	451742	448725	450000
445.5612	1	10	1	786.8	1	4	8	1	1	0	75	0.75	457247	454445	455232
448.3633	1	31	-99	-99	1	4	8	1	1	0	75	0.75	457247	454445	455232
451.6793	1	10	1	836.7	1	7	4	0	1	0	76	0.75	463763	460563	461400
454.8792	1	30	-99	-99	1	7	4	0	1	0	76	0.75	463763	460563	461400
457.8138	1	10	1	758.2	1	4	6	1	1	0	77	0.75	469416	466697	467456
460.5329	1	31	-99	-99	1	4	6	1	1	0	77	0.75	469416	466697	467456
463.2521	1	10	1	823.9	1	2	6	0	1	1	78	0.25	474755	472136	472960
465.8717	1	30	-99	-99	1	2	6	0	1	1	78	0.25	474755	472136	472960
469.2872	1	10	1	436.8	1	4	4	0	1	1	79	0.25	480210	478171	478608
471.3265	1	30	-99	-99	1	4	4	0	1	1	79	0.25	480210	478171	478608
474.3441	1	10	1	403.9	1	7	6	1	1	1	80	0.25	485632	483228	483632
476.7481	1	31	-99	-99	1	7	6	1	1	1	80	0.25	485632	483228	483632
479.3512	1	10	1	380.8	1	3	5	0	1	1	81	0.25	490291	488235	488616
481.4071	1	30	-99	-99	1	3	5	0	1	1	81	0.25	490291	488235	488616
484.806	1	10	1	518	1	7	3	0	1	1	82	0.25	495878	493690	494208
486.9946	1	30	-99	-99	1	7	3	0	1	1	82	0.25	495878	493690	494208
490.3437	1	10	1	452.3	1	6	4	0	1	1	83	0.25	502129	499227	499680
493.2452	1	30	-99	-99	1	6	4	0	1	1	83	0.25	502129	499227	499680
496.6441	1	10	1	279.9	1	8	8	1	1	1	84	0.25	507683	505528	505808
498.7995	1	31	-99	-99	1	8	8	1	1	1	84	0.25	507683	505528	505808
502.2647	1	10	1	435.3	1	5	2	0	1	1	85	0.25	513818	511148	511584
504.9341	1	30	-99	-99	1	5	2	0	1	1	85	0.25	513818	511148	511584
508.0511	1	10	2	505	1	4	2	1	2	1	86	0.25	519405	516935	517440
510.5215	1	31	-99	-99	1	4	2	1	2	1	86	0.25	519405	516935	517440
513.7214	1	10	2	370.7	1	8	5	1	2	1	87	0.25	525075	522605	522976
516.1919	1	31	-99	-99	1	8	5	1	2	1	87	0.25	525075	522605	522976
519.7068	1	10	2	425.2	1	4	5	0	2	1	88	0.25	531028	528590	529016
522.1441	1	30	-99	-99	1	4	5	0	2	1	88	0.25	531028	528590	529016
525.2777	1	10	2	638.3	1	7	2	1	2	1	89	0.25	536797	534161	534800
527.9139	1	31	3	3146.2	1	7	2	1	2	1	89	0.25	536797	534161	534800
532.0755	1	10	2	2088.5	1	5	8	1	2	1	90	0.15	545203	540959	543048
536.3199	1	31	-99	-99	1	5	8	1	2	1	90	0.15	545203	540959	543048
539.4204	1	10	2	639.7	1	7	4	1	2	1	91	0.15	550675	548304	548944
541.7913	1	31	-99	-99	1	7	4	1	2	1	91	0.15	550675	548304	548944
545.1239	1	10	2	440.2	1	7	2	1	2	1	92	0.15	556378	554007	554448
547.4948	1	31	-99	-99	1	7	2	1	2	1	92	0.15	556378	554007	554448
550.8937	1	10	2	622.3	1	4	4	1	2	1	93	0.15	562016	559777	560400
553.132	1	31	-99	-99	1	4	4	1	2	1	93	0.15	562016	559777	560400
555.9506	1	10	2	693.4	1	4	7	0	2	1	94	0.15	567752	564834	565528
558.8687	1	30	-99	-99	1	4	7	0	2	1	94	0.15	567752	564834	565528
561.8531	1	10	2	374.9	1	8	2	1	2	1	95	0.15	573290	570737	571112
564.4064	1	31	-99	-99	1	8	2	1	2	1	95	0.15	573290	570737	571112
566.9928	1	10	2	595.3	1	7	6	1	2	1	96	0.15	578297	575876	576472
569.4135	1	31	-99	-99	1	7	6	1	2	1	96	0.15	578297	575876	576472
571.9668	1	10	2	429.3	1	3	8	0	2	1	97	0.15	583536	580850	581280
574.6528	1	30	-99	-99	1	3	8	0	2	1	97	0.15	583536	580850	581280
577.3719	1	10	2	456.2	1	6	5	0	2	1	98	0.15	588975	586255	586712
580.091	1	30	-99	-99	1	6	5	0	2	1	98	0.15	588975	586255	586712
583.2744	1	10	2	633.7	1	6	2	1	2	1	99	0.15	594860	592158	592792
585.9769	1	31	-99	-99	1	6	2	1	2	1	99	0.15	594860	592158	592792
588.6629	1	10	2	613.1	1	7	7	0	2	1	100	0.15	599884	597546	598160
591.0006	1	30	-99	-99	1	7	7	0	2	1	100	0.15	599884	597546	598160
594.2835	1	10	2	552.5	1	8	3	1	2	1	101	0.15	605339	603167	603720
596.4554	1	31	-99	-99	1	8	3	1	2	1	101	0.15	605339	603167	603720
599.1082	1	10	2	759.9	1	6	2	1	2	1	102	0.15	610744	607992	608752
601.8605	1	31	-99	-99	1	6	2	1	2	1	102	0.15	610744	607992	608752
605.1599	1	10	2	340.2	1	5	5	1	2	1	103	0.15	616514	614043	614384
607.6303	1	31	-99	-99	1	5	5	1	2	1	103	0.15	616514	614043	614384
610.3329	1	10	2	119.2	1	6	6	1	2	1	104	0.15	621123	619216	619336
612.2395	1	31	-99	-99	1	6	6	1	2	1	104	0.15	621123	619216	619336
615.5555	1	10	2	576.6	1	3	4	1	2	1	105	0.15	627108	624439	625016
618.2249	1	31	-99	-99	1	3	4	1	2	1	105	0.15	627108	624439	625016
621.3585	1	10	2	781.6	1	8	3	0	2	1	106	0.15	632729	630242	631024
623.8455	1	30	-99	-99	1	8	3	0	2	1	106	0.15	632729	630242	631024
626.4651	1	10	1	2035	1	3	4	0	1	1	107	0.15	639063	635349	637384
630.1791	1	30	-99	-99	1	3	4	0	1	1	107	0.15	639063	635349	637384
632.9645	1	10	2	623.6	1	3	4	1	2	1	108	0.15	644517	641848	642472
635.6339	1	31	-99	-99	1	3	4	1	2	1	108	0.15	644517	641848	642472
638.6514	1	10	2	888.7	1	6	3	1	2	1	109	0.15	650652	647535	648424
641.7684	1	31	-99	-99	1	6	3	1	2	1	109	0.15	650652	647535	648424
645.2005	1	10	2	619.6	1	5	6	1	2	1	110	0.15	657102	654084	654704
648.218	1	31	-99	-99	1	5	6	1	2	1	110	0.15	657102	654084	654704
651.6667	1	10	2	617.4	1	8	7	0	2	0	111	0.85	663518	660550	661168
654.6345	1	30	-99	-99	1	8	7	0	2	0	111	0.85	663518	660550	661168
657.2375	1	10	2	902.6	1	7	5	0	2	0	112	0.85	669222	666121	667024
660.338	1	30	-99	-99	1	7	5	0	2	0	112	0.85	669222	666121	667024
663.6043	1	10	1	519.8	1	6	3	1	1	0	113	0.85	674942	672488	673008
666.0581	1	31	-99	-99	1	6	3	1	1	0	113	0.85	674942	672488	673008
669.1585	1	10	1	373.6	1	2	8	0	1	0	114	0.85	680264	678042	678416
671.3803	1	30	-99	-99	1	2	8	0	1	0	114	0.85	680264	678042	678416
674.2983	1	10	2	417.8	1	7	4	0	2	0	115	0.85	686050	683182	683600
677.1667	1	30	-99	-99	1	7	4	0	2	0	115	0.85	686050	683182	683600
680.2008	1	10	2	347.3	1	4	8	0	2	0	116	0.85	691455	689084	689432
682.5717	1	30	-99	-99	1	4	8	0	2	0	116	0.85	691455	689084	689432
685.5727	1	10	1	599.4	1	4	3	1	1	0	117	0.85	696744	694456	695056
687.8607	1	31	-99	-99	1	4	3	1	1	0	117	0.85	696744	694456	695056
691.3259	1	10	1	302.2	1	4	4	0	1	0	118	0.85	702116	700209	700512
693.2326	1	30	-99	-99	1	4	4	0	1	0	118	0.85	702116	700209	700512
696.6647	1	10	1	419.4	1	4	7	1	1	0	119	0.85	707786	705548	705968
698.903	1	31	-99	-99	1	4	7	1	1	0	119	0.85	707786	705548	705968
702.1527	1	10	1	307.4	1	8	4	1	1	0	120	0.85	713490	711036	711344
704.6065	1	31	-99	-99	1	8	4	1	1	0	120	0.85	713490	711036	711344
707.5246	1	10	1	623.5	1	5	6	1	1	0	121	0.85	719442	716408	717032
710.5587	1	31	-99	-99	1	5	6	1	1	0	121	0.85	719442	716408	717032
713.6591	1	10	1	497	1	4	6	0	1	0	122	0.85	725262	722543	723040
716.3782	1	30	-99	-99	1	4	6	0	1	0	122	0.85	725262	722543	723040
719.1139	1	10	1	570.2	1	3	8	1	1	0	123	0.85	730285	727997	728568
721.402	1	31	-99	-99	1	3	8	1	1	0	123	0.85	730285	727997	728568
724.0714	1	10	1	564.7	1	3	8	1	1	0	124	0.85	735923	732955	733520
727.0392	1	31	3	3124.9	1	3	8	1	1	0	124	0.85	735923	732955	733520
