onset	duration	value	response	rt	good	Bd1	Bd2	F	Resp	buena	nt	prob	ttF	ttp	ttr
17.7945	1	10	2	1021.5	1	2	6	1	2	0	1	0.25	24543	21343	22365
20.9944	1	31	-99	-99	1	2	6	1	2	0	1	0.25	24543	21343	22365
24.1777	1	10	2	414.3	1	4	7	1	2	0	2	0.25	30595	27726	28141
27.0461	1	31	-99	-99	1	4	7	1	2	0	2	0.25	30595	27726	28141
30.1465	1	10	2	445.5	1	3	3	1	2	0	3	0.25	36099	33695	34141
32.5506	1	31	-99	-99	1	3	3	1	2	0	3	0.25	36099	33695	34141
35.9163	1	10	2	379.7	1	7	6	1	2	0	4	0.25	41919	39465	39845
38.3702	1	31	-99	-99	1	7	6	1	2	0	4	0.25	41919	39465	39845
41.8354	1	10	2	284.6	1	2	7	0	2	0	5	0.25	47357	45384	45669
43.8084	1	30	-99	-99	1	2	7	0	2	0	5	0.25	47357	45384	45669
46.5607	1	10	2	583.3	1	8	6	1	2	0	6	0.25	52381	50109	50693
48.8321	1	31	-99	-99	1	8	6	1	2	0	6	0.25	52381	50109	50693
51.7502	1	10	2	633.8	1	5	7	0	2	0	7	0.25	57952	55299	55933
54.403	1	30	-99	-99	1	5	7	0	2	0	7	0.25	57952	55299	55933
57.9179	1	10	1	1370.1	1	8	2	0	1	0	8	0.25	64385	61467	62837
60.836	1	30	-99	-99	1	8	2	0	1	0	8	0.25	64385	61467	62837
64.0194	1	10	2	412.6	1	5	8	1	2	0	9	0.25	69541	67568	67981
65.9924	1	31	-99	-99	1	5	8	1	2	0	9	0.25	69541	67568	67981
69.325	1	10	2	291	1	8	2	1	2	0	10	0.25	75659	72874	73165
72.1104	1	31	-99	-99	1	8	2	1	2	0	10	0.25	75659	72874	73165
74.9455	1	10	2	630.5	1	2	5	1	2	0	11	0.25	80998	78494	79125
77.4491	1	31	-99	-99	1	2	5	1	2	0	11	0.25	80998	78494	79125
80.8812	1	10	2	406.8	1	5	6	1	2	0	12	0.25	87016	84430	84837
83.4677	1	31	-99	-99	1	5	6	1	2	0	12	0.25	87016	84430	84837
86.6842	1	10	2	531.8	1	2	5	0	2	0	13	0.25	92637	90233	90765
89.0883	1	30	-99	-99	1	2	5	0	2	0	13	0.25	92637	90233	90765
92.255	1	10	2	785	1	3	7	0	2	0	14	0.25	98738	95804	96589
95.1897	1	30	-99	-99	1	3	7	0	2	0	14	0.25	98738	95804	96589
98.1243	1	10	1	355.7	1	6	6	0	1	0	15	0.25	103663	101673	102029
100.1139	1	30	-99	-99	1	6	6	0	1	0	15	0.25	103663	101673	102029
103.2973	1	10	2	638.7	1	2	5	1	2	0	16	0.25	109267	106846	107485
105.718	1	31	-99	-99	1	2	5	1	2	0	16	0.25	109267	106846	107485
108.4205	1	10	2	427.5	1	7	2	1	2	0	17	0.25	114506	111969	112397
110.9572	1	31	-99	-99	1	7	2	1	2	0	17	0.25	114506	111969	112397
114.0079	1	10	2	432.1	1	3	6	1	2	1	18	0.75	119745	117557	117989
116.1965	1	31	-99	-99	1	3	6	1	2	1	18	0.75	119745	117557	117989
119.3301	1	10	2	413.9	1	4	2	0	2	1	19	0.75	124968	122879	123293
121.4192	1	30	-99	-99	1	4	2	0	2	1	19	0.75	124968	122879	123293
124.1051	1	10	2	518.9	1	8	4	0	2	1	20	0.75	130141	127654	128173
126.5921	1	30	-99	-99	1	8	4	0	2	1	20	0.75	130141	127654	128173
129.6097	1	10	1	566.3	1	6	2	0	1	1	21	0.75	135297	133158	133725
131.7485	1	30	-99	-99	1	6	2	0	1	1	21	0.75	135297	133158	133725
134.8821	1	10	2	677.9	1	4	7	0	2	1	22	0.75	141249	138431	139109
137.7007	1	30	-99	-99	1	4	7	0	2	1	22	0.75	141249	138431	139109
140.8509	1	10	1	293.1	1	8	4	1	1	1	23	0.75	147019	144399	144693
143.4705	1	31	-99	-99	1	8	4	1	1	1	23	0.75	147019	144399	144693
146.4715	1	10	1	376.5	1	3	6	1	1	1	24	0.75	152656	150020	150397
149.1077	1	31	-99	-99	1	3	6	1	1	1	24	0.75	152656	150020	150397
151.9926	1	10	1	391.4	1	4	2	1	1	1	25	0.75	158376	155541	155933
154.8278	1	31	-99	-99	1	4	2	1	1	1	25	0.75	158376	155541	155933
157.7293	1	10	1	414.7	1	7	7	0	1	1	26	0.75	163665	161278	161693
160.1168	1	30	-99	-99	1	7	7	0	1	1	26	0.75	163665	161278	161693
162.6867	1	10	1	593.3	1	2	3	1	1	1	27	0.75	168391	166235	166829
164.8421	1	31	-99	-99	1	2	3	1	1	1	27	0.75	168391	166235	166829
167.9425	1	10	1	961.5	1	5	2	1	1	1	28	0.75	174061	171491	172453
170.5124	1	31	-99	-99	1	5	2	1	1	1	28	0.75	174061	171491	172453
173.6626	1	10	1	553.4	1	8	4	1	1	1	29	0.75	179648	177211	177765
176.0998	1	31	3	3332.2	1	8	4	1	1	1	29	0.75	179648	177211	177765
180.4604	1	10	1	779.6	1	6	3	1	1	0	30	0.15	187308	184009	184789
183.7598	1	31	-99	-99	1	6	3	1	1	0	30	0.15	187308	184009	184789
187.2581	1	10	1	429.9	1	5	4	0	1	0	31	0.15	193609	190807	191237
190.0602	1	30	-99	-99	1	5	4	0	1	0	31	0.15	193609	190807	191237
193.3927	1	10	1	399.3	1	6	6	0	1	0	32	0.15	199677	196941	197341
196.1284	1	30	-99	-99	1	6	6	0	1	0	32	0.15	199677	196941	197341
199.2785	1	10	2	849.5	1	2	3	1	2	0	33	0.15	206060	202827	203677
202.5117	1	31	-99	-99	1	2	3	1	2	0	33	0.15	206060	202827	203677
205.6785	1	10	2	313.5	1	7	5	1	2	0	34	0.15	211449	209227	209541
207.9002	1	31	-99	-99	1	7	5	1	2	0	34	0.15	211449	209227	209541
210.4867	1	10	2	273.3	1	8	2	1	2	0	35	0.15	216804	214035	214309
213.2555	1	31	-99	-99	1	8	2	1	2	0	35	0.15	216804	214035	214309
215.8088	1	10	2	359.2	1	4	4	1	2	0	36	0.15	221645	219357	219717
218.0969	1	31	-99	-99	1	4	4	1	2	0	36	0.15	221645	219357	219717
221.0315	1	10	2	640.5	1	3	3	0	2	0	37	0.15	227482	224580	225221
223.933	1	30	-99	-99	1	3	3	0	2	0	37	0.15	227482	224580	225221
226.5361	1	10	2	543.9	1	4	6	1	2	0	38	0.15	232953	230085	230629
229.4044	1	31	-99	-99	1	4	6	1	2	0	38	0.15	232953	230085	230629
232.8696	1	10	2	658.4	1	4	5	1	2	0	39	0.15	239270	236418	237077
235.7213	1	31	-99	-99	1	4	5	1	2	0	39	0.15	239270	236418	237077
239.2363	1	10	2	467.6	1	7	5	1	2	0	40	0.15	244824	242785	243253
241.2756	1	31	-99	-99	1	7	5	1	2	0	40	0.15	244824	242785	243253
244.7408	1	10	2	283.2	1	8	5	1	2	0	41	0.15	250992	248289	248573
247.4434	1	31	-99	-99	1	8	5	1	2	0	41	0.15	250992	248289	248573
250.0298	1	10	2	282.1	1	2	7	1	2	0	42	0.15	256165	253578	253861
252.6163	1	31	-99	-99	1	2	7	1	2	0	42	0.15	256165	253578	253861
255.352	1	10	2	552	1	7	7	1	2	0	43	0.15	261669	258901	259453
258.1209	1	31	-99	-99	1	7	7	1	2	0	43	0.15	261669	258901	259453
261.2876	1	10	2	416.3	1	7	7	1	2	0	44	0.15	267323	264836	265253
263.7746	1	31	-99	-99	1	7	7	1	2	0	44	0.15	267323	264836	265253
266.3445	1	10	2	343.4	1	6	5	1	2	0	45	0.15	272032	269893	270237
268.4833	1	31	-99	-99	1	6	5	1	2	0	45	0.15	272032	269893	270237
271.0035	1	10	2	340.4	1	5	7	1	2	0	46	0.15	276857	274552	274893
273.3081	1	31	-99	-99	1	5	7	1	2	0	46	0.15	276857	274552	274893
276.6407	1	10	2	135.2	1	5	7	0	2	1	47	0.85	281963	280189	280325
278.4147	1	30	-99	-99	1	5	7	0	2	1	47	0.85	281963	280189	280325
281.4157	1	10	2	304.3	1	4	8	0	2	1	48	0.85	286838	284964	285269
283.2892	1	30	-99	-99	1	4	8	0	2	1	48	0.85	286838	284964	285269
286.2902	1	10	1	365.7	1	8	2	1	1	1	49	0.85	292011	289839	290205
288.4622	1	31	-99	-99	1	8	2	1	1	1	49	0.85	292011	289839	290205
291.8942	1	10	1	273.7	1	3	4	1	1	1	50	0.85	297913	295443	295717
294.3646	1	31	-99	-99	1	3	4	1	1	1	50	0.85	297913	295443	295717
297.1169	1	10	1	339	1	4	5	1	1	1	51	0.85	303318	300666	301005
299.7697	1	31	-99	-99	1	4	5	1	1	1	51	0.85	303318	300666	301005
302.7541	1	10	1	389.8	1	7	8	1	1	1	52	0.85	308657	306303	306693
305.1085	1	31	-99	-99	1	7	8	1	1	1	52	0.85	308657	306303	306693
308.5073	1	10	1	484.6	1	2	5	1	1	1	53	0.85	315024	312056	312541
311.4751	1	31	-99	-99	1	2	5	1	1	1	53	0.85	315024	312056	312541
314.9238	1	10	1	260.1	1	7	7	1	1	1	54	0.85	320993	318472	318733
317.4439	1	31	-99	-99	1	7	7	1	1	1	54	0.85	320993	318472	318733
320.876	1	10	1	508	1	2	4	1	1	1	55	0.85	326895	324425	324933
323.3464	1	31	-99	-99	1	2	4	1	1	1	55	0.85	326895	324425	324933
326.2976	1	10	1	454.4	1	7	3	1	1	1	56	0.85	332632	329846	330301
329.0831	1	31	-99	-99	1	7	3	1	1	1	56	0.85	332632	329846	330301
332.0343	1	10	1	613.6	1	5	7	1	1	1	57	0.85	337987	335583	336197
334.4384	1	31	-99	-99	1	5	7	1	1	1	57	0.85	337987	335583	336197
337.3399	1	10	1	404	1	8	3	1	1	1	58	0.85	343293	340888	341293
339.744	1	31	-99	-99	1	8	3	1	1	1	58	0.85	343293	340888	341293
343.1097	1	10	1	802.2	1	7	8	1	1	1	59	0.85	349411	346658	347461
345.862	1	31	3	2985.9	1	7	8	1	1	1	59	0.85	349411	346658	347461
349.8743	1	10	2	821.7	1	5	8	1	2	1	60	0.25	356026	353423	354245
352.4774	1	31	-99	-99	1	5	8	1	2	1	60	0.25	356026	353423	354245
355.9592	1	10	2	320.7	1	4	4	0	2	1	61	0.25	362194	359508	359829
358.6451	1	30	-99	-99	1	4	4	0	2	1	61	0.25	362194	359508	359829
361.729	1	10	2	286.9	1	8	3	1	2	1	62	0.25	367649	365278	365565
364.0999	1	31	-99	-99	1	8	3	1	2	1	62	0.25	367649	365278	365565
366.8024	1	10	2	189.6	1	5	3	1	2	1	63	0.25	372871	370351	370541
369.3226	1	31	-99	-99	1	5	3	1	2	1	63	0.25	372871	370351	370541
372.307	1	10	2	268.9	1	6	3	1	2	1	64	0.25	377829	375856	376125
374.28	1	31	2	2079.9	1	6	3	1	2	1	64	0.25	377829	375856	376125
376.966	1	10	2	305.9	1	2	2	1	2	1	65	0.25	382504	380515	380821
378.9556	1	31	-99	-99	1	2	2	1	2	1	65	0.25	382504	380515	380821
382.1057	1	10	1	526.2	1	8	4	0	1	1	66	0.25	388390	385654	386181
384.8414	1	30	-99	-99	1	8	4	0	1	1	66	0.25	388390	385654	386181
388.1408	1	10	2	107.1	1	3	4	0	2	1	67	0.25	394226	391689	391797
390.6776	1	30	-99	-99	1	3	4	0	2	1	67	0.25	394226	391689	391797
394.1096	1	10	2	250.3	1	8	2	1	2	1	68	0.25	399913	397658	397909
396.3645	1	31	-99	-99	1	8	2	1	2	1	68	0.25	399913	397658	397909
399.2162	1	10	2	231.7	1	4	2	1	2	1	69	0.25	404738	402765	402997
401.1893	1	31	-99	-99	1	4	2	1	2	1	69	0.25	404738	402765	402997
404.3726	1	10	2	379.4	1	3	4	1	2	1	70	0.25	410491	407921	408301
406.9425	1	31	2	2529.4	1	3	4	1	2	1	70	0.25	410491	407921	408301
410.1259	1	10	2	290	1	7	2	1	2	1	71	0.25	415846	413674	413965
412.2978	1	31	-99	-99	1	7	2	1	2	1	71	0.25	415846	413674	413965
415.2988	1	10	2	597.1	1	2	7	1	2	1	72	0.25	421235	418847	419445
417.6863	1	31	-99	-99	1	2	7	1	2	1	72	0.25	421235	418847	419445
420.7205	1	10	2	271.4	1	6	7	1	2	1	73	0.25	426872	424269	424541
423.3235	1	31	-99	-99	1	6	7	1	2	1	73	0.25	426872	424269	424541
426.6726	1	10	2	655.4	1	2	7	1	2	1	74	0.25	432990	430221	430877
429.4415	1	31	-99	-99	1	2	7	1	2	1	74	0.25	432990	430221	430877
432.857	1	10	2	582.9	1	3	2	1	2	1	75	0.25	438959	436406	436989
435.4103	1	31	-99	-99	1	3	2	1	2	1	75	0.25	438959	436406	436989
438.4278	1	10	2	292.1	1	2	2	1	2	1	76	0.25	443867	441976	442269
440.318	1	31	-99	-99	1	2	2	1	2	1	76	0.25	443867	441976	442269
443.5179	1	10	2	274	1	4	5	0	2	0	77	0.75	449255	447066	447341
445.7064	1	30	-99	-99	1	4	5	0	2	0	77	0.75	449255	447066	447341
448.3427	1	10	2	369.2	1	4	4	1	2	0	78	0.75	454130	451891	452261
450.5809	1	31	-99	-99	1	4	4	1	2	0	78	0.75	454130	451891	452261
453.6814	1	10	2	214.5	1	5	7	0	2	0	79	0.75	459700	457230	457445
456.1518	1	30	-99	-99	1	5	7	0	2	0	79	0.75	459700	457230	457445
459.5175	1	10	1	402.4	1	5	5	1	1	0	80	0.75	465371	463066	463469
461.8221	1	31	-99	-99	1	5	5	1	1	0	80	0.75	465371	463066	463469
465.1713	1	10	1	316.6	1	7	2	1	1	0	81	0.75	470792	468720	469037
467.2438	1	31	-99	-99	1	7	2	1	1	0	81	0.75	470792	468720	469037
470.2779	1	10	1	314	1	7	8	0	1	0	82	0.75	476562	473827	474141
473.0136	1	30	1	3026.3	1	7	8	0	1	0	82	0.75	476562	473827	474141
476.5286	1	10	1	351.3	1	3	7	1	1	0	83	0.75	482216	480077	480429
478.6674	1	31	-99	-99	1	3	7	1	1	0	83	0.75	482216	480077	480429
481.4694	1	10	1	770.5	1	7	5	1	1	0	84	0.75	487936	485018	485789
484.3875	1	31	-99	-99	1	7	5	1	1	0	84	0.75	487936	485018	485789
487.5045	1	10	1	559.4	1	3	6	0	1	0	85	0.75	493391	491053	491613
489.8423	1	30	-99	-99	1	3	6	0	1	0	85	0.75	493391	491053	491613
493.1748	1	10	1	249.1	1	8	7	1	1	0	86	0.75	499360	496723	496973
495.811	1	31	1	2852.9	1	8	7	1	1	0	86	0.75	499360	496723	496973
498.8949	1	10	1	257	1	2	3	1	1	0	87	0.75	504715	502444	502701
501.1664	1	31	1	2577.5	1	2	3	1	1	0	87	0.75	504715	502444	502701
504.3331	1	10	1	506.8	1	2	2	1	1	0	88	0.75	510883	507882	508389
507.3341	1	31	-99	-99	1	2	2	1	1	0	88	0.75	510883	507882	508389
510.3683	1	10	1	295.6	1	2	6	1	1	0	89	0.75	515857	513917	514212
512.3081	1	31	3	3123.9	1	2	6	1	1	0	89	0.75	515857	513917	514212
516.4531	1	10	2	442.8	1	5	3	0	2	0	90	0.85	522406	520002	520445
518.8572	1	30	-99	-99	1	5	3	0	2	0	90	0.85	522406	520002	520445
522.14	1	10	1	475.9	1	8	5	1	1	0	91	0.85	527745	525689	526165
524.1959	1	31	-99	-99	1	8	5	1	1	0	91	0.85	527745	525689	526165
526.8487	1	10	1	231.2	1	5	5	1	1	0	92	0.85	532752	530397	530628
529.2031	1	31	-99	-99	1	5	5	1	1	0	92	0.85	532752	530397	530628
532.1211	1	10	1	270.8	1	4	2	1	1	0	93	0.85	538124	535670	535940
534.575	1	31	-99	-99	1	4	2	1	1	0	93	0.85	538124	535670	535940
537.3107	1	10	1	225.2	1	2	4	1	1	0	94	0.85	543197	540859	541084
539.6484	1	31	-99	-99	1	2	4	1	1	0	94	0.85	543197	540859	541084
542.5997	1	10	1	472.2	1	3	6	0	1	0	95	0.85	549050	546148	546620
545.5012	1	30	-99	-99	1	3	6	0	1	0	95	0.85	549050	546148	546620
548.8006	1	10	1	447.3	1	3	2	1	1	0	96	0.85	554836	552349	552797
551.2876	1	31	-99	-99	1	3	2	1	1	0	96	0.85	554836	552349	552797
554.0233	1	10	1	312.6	1	3	3	1	1	0	97	0.85	560291	557572	557884
556.7424	1	31	1	689.5	1	3	3	1	1	0	97	0.85	560291	557572	557884
559.5775	1	10	1	278.4	1	4	7	1	1	0	98	0.85	565099	563126	563405
561.5505	1	31	-99	-99	1	4	7	1	1	0	98	0.85	565099	563126	563405
564.8168	1	10	1	1567.1	1	2	7	1	1	0	99	0.85	571582	568365	569933
568.0333	1	31	-99	-99	1	2	7	1	1	0	99	0.85	571582	568365	569933
570.6695	1	10	1	490.4	1	2	6	1	1	0	100	0.85	576291	574218	574708
572.742	1	31	-99	-99	1	2	6	1	1	0	100	0.85	576291	574218	574708
575.4446	1	10	1	507.3	1	5	2	1	1	0	101	0.85	581546	578993	579501
577.9979	1	31	-99	-99	1	5	2	1	1	0	101	0.85	581546	578993	579501
580.6175	1	10	1	726.4	1	8	6	1	1	0	102	0.85	587184	584166	584893
583.635	1	31	-99	-99	1	8	6	1	1	0	102	0.85	587184	584166	584893
586.5365	1	10	1	383.4	1	6	2	1	1	0	103	0.85	592804	590085	590468
589.2556	1	31	-99	-99	1	6	2	1	1	0	103	0.85	592804	590085	590468
592.0577	1	10	1	662.2	1	6	2	0	1	0	104	0.85	598756	595606	596269
595.2078	1	30	-99	-99	1	6	2	0	1	0	104	0.85	598756	595606	596269
598.2088	1	10	1	367.1	1	7	4	1	1	0	105	0.85	603747	601757	602124
600.1984	1	31	2	417.5	1	7	4	1	1	0	105	0.85	603747	601757	602124
603.6636	1	10	1	216.3	1	4	3	0	1	1	106	0.15	609666	607212	607428
606.1175	1	30	-99	-99	1	4	3	0	1	1	106	0.15	609666	607212	607428
609.6158	1	10	1	264.1	1	5	4	0	1	1	107	0.15	615055	613164	613428
611.5059	1	30	-99	-99	1	5	4	0	1	1	107	0.15	615055	613164	613428
614.4738	1	10	1	278.1	1	6	8	0	1	1	108	0.15	620078	618022	618300
616.5297	1	30	-99	-99	1	6	8	0	1	1	108	0.15	620078	618022	618300
619.1493	1	10	2	330.6	1	5	5	1	2	1	109	0.15	625185	622698	623028
621.6363	1	31	-99	-99	1	5	5	1	2	1	109	0.15	625185	622698	623028
624.9523	1	10	2	343.6	1	5	3	1	2	1	110	0.15	630656	628501	628844
627.1077	1	31	-99	-99	1	5	3	1	2	1	110	0.15	630656	628501	628844
630.49	1	10	2	269.9	1	4	4	1	2	1	111	0.15	636376	634039	634308
632.8278	1	31	-99	-99	1	4	4	1	2	1	111	0.15	636376	634039	634308
635.5303	1	10	2	349.6	1	6	6	1	2	1	112	0.15	641251	639079	639429
637.7023	1	31	-99	-99	1	6	6	1	2	1	112	0.15	641251	639079	639429
640.5872	1	10	2	380.7	1	6	3	0	2	1	113	0.15	646192	644136	644517
642.6431	1	30	-99	-99	1	6	3	0	2	1	113	0.15	646192	644136	644517
645.5612	1	10	2	374.7	1	2	8	1	2	1	114	0.15	651613	649110	649484
648.0647	1	31	-99	-99	1	2	8	1	2	1	114	0.15	651613	649110	649484
650.6512	1	10	2	532.7	1	4	7	1	2	1	115	0.15	657101	654200	654732
653.5527	1	31	-99	-99	1	4	7	1	2	1	115	0.15	657101	654200	654732
656.7858	1	10	2	358.1	1	2	5	1	2	1	116	0.15	662506	660334	660692
658.9578	1	31	-99	-99	1	2	5	1	2	1	116	0.15	662506	660334	660692
661.5111	1	10	2	392.8	1	6	8	1	2	1	117	0.15	667928	665060	665453
664.3794	1	31	-99	-99	1	6	8	1	2	1	117	0.15	667928	665060	665453
667.7451	1	10	2	374.8	1	6	8	1	2	1	118	0.15	673449	671294	671668
669.9005	1	31	-99	-99	1	6	8	1	2	1	118	0.15	673449	671294	671668
672.5367	1	10	2	591.2	1	8	2	1	2	1	119	0.15	678854	676085	676676
675.3056	1	31	-99	-99	1	8	2	1	2	1	119	0.15	678854	676085	676676
678.7874	1	10	2	420.5	1	3	6	0	2	1	120	0.15	684906	682336	682757
681.3573	1	30	3	2602.6	1	3	6	0	2	1	120	0.15	684906	682336	682757
