onset	duration	value	response	rt	good	Bd1	Bd2	F	Resp	buena	nt	prob	ttF	ttp	ttr
1.0223	1	10	1	904.2	1	4	7	1	1	0	1	0.85	20779	17497	18401
4.3051	1	31	-99	-99	1	4	7	1	1	0	1	0.85	20779	17497	18401
7.0077	1	10	1	1070.8	1	2	6	1	1	0	2	0.85	27063	23482	24553
10.5889	1	31	-99	-99	1	2	6	1	1	0	2	0.85	27063	23482	24553
13.192	1	10	1	790.5	1	4	2	1	1	0	3	0.85	32733	29666	30457
16.2593	1	31	-99	-99	1	4	2	1	1	0	3	0.85	32733	29666	30457
19.6747	1	10	1	939.8	1	3	8	1	1	0	4	0.85	39183	36149	37089
22.7089	1	31	-99	-99	1	3	8	1	1	0	4	0.85	39183	36149	37089
25.3782	1	10	1	628.3	1	6	2	1	1	0	5	0.85	44290	41852	42481
27.8155	1	31	-99	-99	1	6	2	1	1	0	5	0.85	44290	41852	42481
30.9657	1	10	1	472.8	1	6	8	1	1	0	6	0.85	49446	47440	47913
32.9719	1	31	-99	-99	1	6	8	1	1	0	6	0.85	49446	47440	47913
36.0391	1	10	1	599.4	1	6	2	1	1	0	7	0.85	54901	52513	53113
38.4267	1	31	1	643.8	1	6	2	1	1	0	7	0.85	54901	52513	53113
41.1126	1	10	1	685.9	1	6	5	1	1	0	8	0.85	60455	57587	58273
43.9809	1	31	-99	-99	1	6	5	1	1	0	8	0.85	60455	57587	58273
46.6006	1	10	1	333.9	1	3	6	1	1	0	9	0.85	65180	63075	63409
48.7062	1	31	-99	-99	1	3	6	1	1	0	9	0.85	65180	63075	63409
51.6906	1	10	1	363.9	1	4	4	1	1	0	10	0.85	70552	68165	68529
54.0781	1	31	-99	-99	1	4	4	1	1	0	10	0.85	70552	68165	68529
57.5267	1	10	1	359.8	1	6	7	1	1	0	11	0.85	76024	74001	74361
59.5495	1	31	-99	-99	1	6	7	1	1	0	11	0.85	76024	74001	74361
62.6997	1	10	1	442.7	1	3	5	1	1	0	12	0.85	81794	79174	79617
65.3193	1	31	-99	-99	1	3	5	1	1	0	12	0.85	81794	79174	79617
68.7182	1	10	1	248.3	1	3	8	1	1	0	13	0.85	87331	85192	85441
70.857	1	31	-99	-99	1	3	8	1	1	0	13	0.85	87331	85192	85441
74.2725	1	10	1	253.9	1	7	7	1	1	0	14	0.85	92819	90747	91001
76.345	1	31	-99	-99	1	7	7	1	1	0	14	0.85	92819	90747	91001
79.462	1	10	1	224.4	1	5	3	0	1	0	15	0.85	97959	95936	96161
81.4848	1	30	-99	-99	1	5	3	0	1	0	15	0.85	97959	95936	96161
84.5686	1	10	2	333.8	1	5	2	0	2	0	16	0.85	103696	101043	101377
87.2214	1	30	-99	-99	1	5	2	0	2	0	16	0.85	103696	101043	101377
89.8079	1	10	2	414.5	1	3	7	1	2	0	17	0.85	108421	106282	106697
91.9467	1	31	-99	-99	1	3	7	1	2	0	17	0.85	108421	106282	106697
95.3456	1	10	2	404.8	1	4	8	0	2	0	18	0.85	113843	111820	112225
97.3684	1	30	-99	-99	1	4	8	0	2	0	18	0.85	113843	111820	112225
100.303	1	10	1	367.4	1	7	8	0	1	1	19	0.15	119513	116777	117145
103.0387	1	30	-99	-99	1	7	8	0	1	1	19	0.15	119513	116777	117145
106.3713	1	10	1	203.1	1	3	7	1	1	1	20	0.15	125482	122845	123049
109.0074	1	31	-99	-99	1	3	7	1	1	1	20	0.15	125482	122845	123049
112.4561	1	10	2	358.3	1	8	3	1	2	1	21	0.15	131119	128930	129289
114.6446	1	31	-99	-99	1	8	3	1	2	1	21	0.15	131119	128930	129289
117.3472	1	10	1	275.2	1	5	5	0	1	1	22	0.15	135745	133821	134097
119.2704	1	30	-99	-99	1	5	5	0	1	1	22	0.15	135745	133821	134097
122.7688	1	10	1	557.6	1	8	2	0	1	1	23	0.15	141896	139243	139801
125.4216	1	30	2	2704.8	1	8	2	0	1	1	23	0.15	141896	139243	139801
128.7044	1	10	2	366	1	4	2	1	2	1	24	0.15	147616	145179	145545
131.1417	1	31	-99	-99	1	4	2	1	2	1	24	0.15	147616	145179	145545
134.6566	1	10	2	509.8	1	8	4	1	2	1	25	0.15	153684	151131	151641
137.2099	1	31	-99	-99	1	8	4	1	2	1	25	0.15	153684	151131	151641
140.7249	1	10	2	297.5	1	5	5	0	2	1	26	0.15	159786	157199	157497
143.3114	1	30	-99	-99	1	5	5	0	2	1	26	0.15	159786	157199	157497
146.6273	1	10	1	379.1	1	8	8	0	1	1	27	0.15	165008	163102	163481
148.534	1	30	-99	-99	1	8	8	0	1	1	27	0.15	165008	163102	163481
151.2697	1	10	2	464.7	1	6	2	1	2	1	28	0.15	169916	167744	168209
153.4417	1	31	2	692.6	1	6	2	1	2	1	28	0.15	169916	167744	168209
156.194	1	10	2	940.4	1	7	6	1	2	1	29	0.15	175354	172668	173609
158.8799	1	31	-99	-99	1	7	6	1	2	1	29	0.15	175354	172668	173609
162.312	1	10	2	1686.4	1	3	3	1	2	1	30	0.15	182052	178786	180473
165.5782	1	31	-99	-99	1	3	3	1	2	1	30	0.15	182052	178786	180473
168.7616	1	10	2	708.7	1	5	5	1	2	1	31	0.15	188187	185236	185945
171.7128	1	31	3	5669.6	1	5	5	1	2	1	31	0.15	188187	185236	185945
178.4111	1	10	1	1715.3	1	3	6	1	1	1	32	0.25	198765	194885	196601
182.2908	1	31	-99	-99	1	3	6	1	1	1	32	0.25	198765	194885	196601
185.441	1	10	1	213.3	1	6	4	1	1	1	33	0.25	203789	201915	202129
187.3145	1	31	-99	-99	1	6	4	1	1	1	33	0.25	203789	201915	202129
190.1828	1	10	1	495.5	1	6	7	0	1	1	34	0.25	208796	206657	207153
192.3217	1	30	-99	-99	1	6	7	0	1	1	34	0.25	208796	206657	207153
195.19	1	10	2	272.4	1	6	3	1	2	1	35	0.25	214184	211664	211937
197.7101	1	31	-99	-99	1	6	3	1	2	1	35	0.25	214184	211664	211937
201.1256	1	10	2	352.7	1	6	8	1	2	1	36	0.25	219888	217600	217952
203.4136	1	31	-99	-99	1	6	8	1	2	1	36	0.25	219888	217600	217952
206.6965	1	10	2	1453.8	1	3	3	1	2	1	37	0.25	226238	223171	224625
209.7638	1	31	-99	-99	1	3	3	1	2	1	37	0.25	226238	223171	224625
212.5823	1	10	2	512	1	4	2	1	2	1	38	0.25	232057	229057	229569
215.5833	1	31	-99	-99	1	4	2	1	2	1	38	0.25	232057	229057	229569
218.1863	1	10	2	324	1	7	2	1	2	1	39	0.25	237148	234661	234985
220.6734	1	31	2	3108.9	1	7	2	1	2	1	39	0.25	237148	234661	234985
224.1883	1	10	2	418	1	6	6	1	2	1	40	0.25	243465	240663	241081
226.9903	1	31	-99	-99	1	6	6	1	2	1	40	0.25	243465	240663	241081
230.2068	1	10	2	559.5	1	7	8	1	2	1	41	0.25	249384	246681	247240
232.9093	1	31	2	2465	1	7	8	1	2	1	41	0.25	249384	246681	247240
236.2751	1	10	2	491.2	1	4	7	1	2	1	42	0.25	254938	252749	253240
238.4636	1	31	-99	-99	1	4	7	1	2	1	42	0.25	254938	252749	253240
241.2491	1	10	1	501.1	1	2	8	0	1	1	43	0.25	260061	257723	258224
243.5868	1	30	2	1955.5	1	2	8	0	1	1	43	0.25	260061	257723	258224
246.2894	1	10	2	212.8	1	3	3	0	2	1	44	0.25	264554	262764	262976
248.08	1	30	-99	-99	1	3	3	0	2	1	44	0.25	264554	262764	262976
251.4291	1	10	1	665.1	1	3	2	0	1	1	45	0.25	270473	267903	268568
253.999	1	30	-99	-99	1	3	2	0	1	1	45	0.25	270473	267903	268568
257.2984	1	10	1	219.8	1	6	2	1	1	1	46	0.25	275812	273773	273992
259.3378	1	31	-99	-99	1	6	2	1	1	1	46	0.25	275812	273773	273992
262.6703	1	10	1	335.9	1	4	3	1	1	1	47	0.25	281267	279145	279480
264.7926	1	31	1	1653.6	1	4	3	1	1	1	47	0.25	281267	279145	279480
268.1251	1	10	1	225.1	1	8	6	1	1	0	48	0.75	286688	284599	284824
270.2142	1	31	-99	-99	1	8	6	1	1	0	48	0.75	286688	284599	284824
273.4307	1	10	1	391.5	1	4	2	1	1	0	49	0.75	292392	289905	290296
275.9177	1	31	-99	-99	1	4	2	1	1	0	49	0.75	292392	289905	290296
278.7529	1	10	1	357.3	1	7	2	1	1	0	50	0.75	297565	295227	295584
281.0906	1	31	-99	-99	1	7	2	1	1	0	50	0.75	297565	295227	295584
284.3569	1	10	1	225.3	1	5	3	1	1	0	51	0.75	303351	300831	301056
286.877	1	31	1	521.2	1	5	3	1	1	0	51	0.75	303351	300831	301056
290.2593	1	10	1	690.9	1	7	2	1	1	0	52	0.75	309469	306734	307424
292.995	1	31	-99	-99	1	7	2	1	1	0	52	0.75	309469	306734	307424
296.4934	1	10	1	392.8	1	5	2	1	1	0	53	0.75	315090	312968	313360
298.6156	1	31	1	1470.6	1	5	2	1	1	0	53	0.75	315090	312968	313360
301.5669	1	10	1	575.3	1	2	8	1	1	0	54	0.75	320163	318041	318616
303.6891	1	31	-99	-99	1	2	8	1	1	0	54	0.75	320163	318041	318616
307.1875	1	10	1	1338.7	1	7	2	1	1	0	55	0.75	327193	323662	325000
310.719	1	31	-99	-99	1	7	2	1	1	0	55	0.75	327193	323662	325000
314.1842	1	10	1	1558	1	8	8	0	1	0	56	0.75	333941	330658	332216
317.467	1	30	-99	-99	1	8	8	0	1	0	56	0.75	333941	330658	332216
320.153	1	10	2	317.2	1	4	2	0	2	0	57	0.75	339379	336627	336944
322.9053	1	30	1	2348.9	1	4	2	0	2	0	57	0.75	339379	336627	336944
325.7736	1	10	1	440.6	1	4	4	0	1	0	58	0.75	344403	342248	342688
327.929	1	30	-99	-99	1	4	4	0	1	0	58	0.75	344403	342248	342688
330.6647	1	10	1	245.5	1	8	5	1	1	0	59	0.75	349626	347139	347384
333.1516	1	31	-99	-99	1	8	5	1	1	0	59	0.75	349626	347139	347384
336.2687	1	10	2	329.5	1	5	7	0	2	0	60	0.75	354882	352743	353072
338.4075	1	30	3	3198.6	1	5	7	0	2	0	60	0.75	354882	352743	353072
342.6354	1	10	1	554.8	1	5	7	1	1	0	61	0.25	362177	359110	359664
345.7027	1	31	1	559.4	1	5	7	1	1	0	61	0.25	362177	359110	359664
348.6373	1	10	1	360.8	1	3	3	0	1	0	62	0.25	367831	365112	365472
351.3564	1	30	2	2705.7	1	3	3	0	1	0	62	0.25	367831	365112	365472
354.7056	1	10	2	20.5	1	8	4	1	2	0	63	0.25	372970	371180	371200
356.4962	1	31	-99	-99	1	8	4	1	2	0	63	0.25	372970	371180	371200
359.5138	1	10	2	564.3	1	7	7	0	2	0	64	0.25	378458	375988	376552
361.9841	1	30	-99	-99	1	7	7	0	2	0	64	0.25	378458	375988	376552
365.3665	1	10	1	383.6	1	5	4	0	1	0	65	0.25	384261	381841	382224
367.7871	1	30	-99	-99	1	5	4	0	1	0	65	0.25	384261	381841	382224
370.4565	1	10	1	229.6	1	4	3	0	1	0	66	0.25	389119	386931	387160
372.6451	1	30	-99	-99	1	4	3	0	1	0	66	0.25	389119	386931	387160
375.2149	1	10	2	183.2	1	5	6	0	2	0	67	0.25	393496	391689	391872
377.0221	1	30	1	2504	1	5	6	0	2	0	67	0.25	393496	391689	391872
380.0563	1	10	1	957.8	1	3	3	1	1	0	68	0.25	399531	396530	397488
383.0573	1	31	-99	-99	1	3	3	1	1	0	68	0.25	399531	396530	397488
386.2074	1	10	2	438.7	1	8	3	1	2	0	69	0.25	404953	402682	403120
388.4789	1	31	-99	-99	1	8	3	1	2	0	69	0.25	404953	402682	403120
391.6125	1	10	1	313.6	1	3	6	0	1	0	70	0.25	410590	408087	408400
394.1161	1	30	-99	-99	1	3	6	0	1	0	70	0.25	410590	408087	408400
397.2828	1	10	1	323.3	1	3	7	1	1	0	71	0.25	415614	413757	414080
399.1398	1	31	-99	-99	1	3	7	1	1	0	71	0.25	415614	413757	414080
401.7594	1	10	1	262.7	1	2	8	0	1	0	72	0.25	420057	418234	418496
403.5832	1	30	2	2934.9	1	2	8	0	1	0	72	0.25	420057	418234	418496
406.7666	1	10	2	535.5	1	3	6	0	2	0	73	0.25	426010	423241	423776
409.5354	1	30	-99	-99	1	3	6	0	2	0	73	0.25	426010	423241	423776
412.5695	1	10	2	508.6	1	8	2	1	2	0	74	0.25	431431	429044	429552
414.9571	1	31	1	2745	1	8	2	1	2	0	74	0.25	431431	429044	429552
418.3228	1	10	1	99.3	1	6	6	1	1	0	75	0.25	436836	434797	434896
420.3621	1	31	-99	-99	1	6	6	1	1	0	75	0.25	436836	434797	434896
423.247	1	10	2	775	1	8	6	1	2	0	76	0.25	442440	439721	440496
425.9661	1	31	-99	-99	1	8	6	1	2	0	76	0.25	442440	439721	440496
428.9671	1	10	1	286.9	1	6	6	0	1	0	77	0.25	448028	445441	445728
431.5536	1	30	1	2636.5	1	6	6	0	1	0	77	0.25	448028	445441	445728
434.3058	1	10	1	772.2	1	5	4	1	1	1	78	0.75	453831	450780	451552
437.3566	1	31	-99	-99	1	5	4	1	1	1	78	0.75	453831	450780	451552
440.6559	1	10	2	286.2	1	4	4	0	2	1	79	0.75	459501	457130	457416
443.0269	1	30	-99	-99	1	4	4	0	2	1	79	0.75	459501	457130	457416
446.5418	1	10	2	24.2	1	4	8	0	2	1	80	0.75	464624	463016	463040
448.1501	1	30	1	2319.9	1	4	8	0	2	1	80	0.75	464624	463016	463040
450.8195	1	10	1	554.6	1	8	7	1	1	1	81	0.75	470278	467294	467848
453.8038	1	31	-99	-99	1	8	7	1	1	1	81	0.75	470278	467294	467848
456.838	1	10	2	608	1	5	7	0	2	1	82	0.75	475501	473312	473920
459.0265	1	30	-99	-99	1	5	7	0	2	1	82	0.75	475501	473312	473920
462.243	1	10	2	419	1	2	5	0	2	1	83	0.75	480740	478717	479136
464.2658	1	30	-99	-99	1	2	5	0	2	1	83	0.75	480740	478717	479136
467.1507	1	10	1	263.3	1	4	2	1	1	1	84	0.75	485631	483625	483888
469.1569	1	31	-99	-99	1	4	2	1	1	1	84	0.75	485631	483625	483888
472.6884	1	10	2	1205.6	1	3	7	0	2	1	85	0.75	492396	489163	490368
475.9215	1	30	1	2084.5	1	3	7	0	2	1	85	0.75	492396	489163	490368
478.6738	1	10	1	236.2	1	6	3	1	1	1	86	0.75	497751	495148	495384
481.2768	1	31	-99	-99	1	6	3	1	1	1	86	0.75	497751	495148	495384
484.7089	1	10	1	217.1	1	6	6	0	1	1	87	0.75	503421	501183	501400
486.9471	1	30	2	2954.9	1	6	6	0	1	1	87	0.75	503421	501183	501400
490.1305	1	10	2	491.5	1	4	6	0	2	1	88	0.75	509141	506605	507096
492.6672	1	30	-99	-99	1	4	6	0	2	1	88	0.75	509141	506605	507096
495.4858	1	10	2	256.2	1	2	7	0	2	1	89	0.75	513950	511960	512216
497.4754	1	30	-99	-99	1	2	7	0	2	1	89	0.75	513950	511960	512216
500.2277	1	10	2	258.3	1	8	2	1	2	1	90	0.75	518874	516702	516960
502.3997	1	31	-99	-99	1	8	2	1	2	1	90	0.75	518874	516702	516960
505.3011	1	10	2	120.9	1	2	8	0	2	1	91	0.75	523417	521775	521896
506.9426	1	30	1	2799.4	1	2	8	0	2	1	91	0.75	523417	521775	521896
510.4078	1	10	1	70.2	1	4	7	1	1	1	92	0.75	528739	526882	526952
512.2647	1	31	3	4549.3	1	4	7	1	1	1	92	0.75	528739	526882	526952
517.8356	1	10	1	1370.4	1	2	4	0	1	0	93	0.15	537792	534310	535680
521.3173	1	30	2	2416.7	1	2	4	0	1	0	93	0.15	537792	534310	535680
523.9038	1	10	2	542.1	1	6	7	1	2	0	94	0.15	543230	540378	540920
526.7556	1	31	-99	-99	1	6	7	1	2	0	94	0.15	543230	540378	540920
529.7731	1	10	2	456.9	1	8	6	1	2	0	95	0.15	548370	546247	546704
531.8954	1	31	-99	-99	1	8	6	1	2	0	95	0.15	548370	546247	546704
534.7803	1	10	2	449.6	1	6	3	1	2	0	96	0.15	554222	551254	551704
537.7481	1	31	-99	-99	1	6	3	1	2	0	96	0.15	554222	551254	551704
540.6164	1	10	2	269.5	1	4	2	0	2	0	97	0.15	559345	557091	557360
542.8713	1	30	-99	-99	1	4	2	0	2	0	97	0.15	559345	557091	557360
545.8557	1	10	1	206.2	1	4	6	0	1	0	98	0.15	564717	562330	562536
548.2432	1	30	-99	-99	1	4	6	0	1	0	98	0.15	564717	562330	562536
551.211	1	10	2	234.9	1	6	4	1	2	0	99	0.15	570089	567685	567920
553.6151	1	31	-99	-99	1	6	4	1	2	0	99	0.15	570089	567685	567920
556.1684	1	10	2	237.5	1	4	3	1	2	0	100	0.15	575329	572643	572880
558.8543	1	31	-99	-99	1	4	3	1	2	0	100	0.15	575329	572643	572880
561.59	1	10	2	463.9	1	4	8	1	2	0	101	0.15	580468	578064	578528
563.9941	1	31	-99	-99	1	4	8	1	2	0	101	0.15	580468	578064	578528
567.3101	1	10	1	1311.8	1	4	4	0	1	0	102	0.15	586868	583784	585096
570.394	1	30	2	2419.9	1	4	4	0	1	0	102	0.15	586868	583784	585096
573.4613	1	10	2	32.6	1	3	7	1	2	0	103	0.15	592041	589935	589968
575.5669	1	31	-99	-99	1	3	7	1	2	0	103	0.15	592041	589935	589968
578.5845	1	10	2	381.4	1	7	8	0	2	0	104	0.15	597214	595059	595440
580.7399	1	30	-99	-99	1	7	8	0	2	0	104	0.15	597214	595059	595440
583.8735	1	10	2	540.4	1	3	2	1	2	0	105	0.15	603100	600348	600888
586.6257	1	31	-99	-99	1	3	2	1	2	0	105	0.15	603100	600348	600888
589.1625	1	10	2	323.4	1	5	3	1	2	0	106	0.15	608439	605637	605960
591.9645	1	31	-99	-99	1	5	3	1	2	0	106	0.15	608439	605637	605960
594.9323	1	10	2	521.6	1	6	5	1	2	0	107	0.15	614225	611406	611928
597.7509	1	31	-99	-99	1	6	5	1	2	0	107	0.15	614225	611406	611928
601.1	1	10	1	761.9	1	5	8	0	1	0	108	0.15	620111	617574	618336
603.6367	1	30	2	2313.1	1	5	8	0	1	0	108	0.15	620111	617574	618336
606.5714	1	10	2	58.4	1	2	3	1	2	0	109	0.15	625218	623046	623104
608.7434	1	31	-99	-99	1	2	3	1	2	0	109	0.15	625218	623046	623104
611.8106	1	10	2	379.2	1	5	3	0	2	1	110	0.85	631037	628285	628664
614.5629	1	30	1	2146.9	1	5	3	0	2	1	110	0.85	631037	628285	628664
617.4644	1	10	1	13.4	1	6	7	1	1	1	111	0.85	636426	633939	633952
619.9514	1	31	-99	-99	1	6	7	1	1	1	111	0.85	636426	633939	633952
623.2508	1	10	1	323	1	5	4	1	1	1	112	0.85	642179	639725	640048
625.7046	1	31	1	693.2	1	5	4	1	1	1	112	0.85	642179	639725	640048
628.2248	1	10	1	1133	1	2	6	0	1	1	113	0.85	648164	644699	645832
631.69	1	30	2	2243.8	1	2	6	0	1	1	113	0.85	648164	644699	645832
634.6246	1	10	2	197.2	1	5	6	1	2	1	114	0.85	653238	651099	651296
636.7635	1	31	1	2842.3	1	5	6	1	2	1	114	0.85	653238	651099	651296
640.1458	1	10	1	564	1	6	2	1	1	1	115	0.85	658891	656620	657184
642.4172	1	31	-99	-99	1	6	2	1	1	1	115	0.85	658891	656620	657184
645.8493	1	10	2	428.5	1	4	4	0	2	1	116	0.85	664495	662323	662752
648.0212	1	30	-99	-99	1	4	4	0	2	1	116	0.85	664495	662323	662752
650.8067	1	10	2	335.1	1	6	4	1	2	1	117	0.85	669486	667281	667616
653.0118	1	31	-99	-99	1	6	4	1	2	1	117	0.85	669486	667281	667616
655.8635	1	10	2	262.3	1	5	2	0	2	1	118	0.85	674261	672338	672600
657.7868	1	30	-99	-99	1	5	2	0	2	1	118	0.85	674261	672338	672600
660.5888	1	10	1	265	1	8	5	0	1	1	119	0.85	678887	677063	677328
662.4126	1	30	-99	-99	1	8	5	0	1	1	119	0.85	678887	677063	677328
665.1649	1	10	1	296.9	1	3	3	0	1	1	120	0.85	683596	681639	681936
667.1213	1	30	-99	-99	1	3	3	0	1	1	120	0.85	683596	681639	681936
669.8404	1	10	1	261.4	1	2	6	1	1	1	121	0.85	688768	686315	686576
672.2943	1	31	3	3391.5	1	2	6	1	1	1	121	0.85	688768	686315	686576
