onset	duration	value	response	rt	good	Bd1	Bd2	F	Resp	buena	nt	prob	ttF	ttp	ttr
1.0237	1	10	1	1380.7	1	7	5	0	1	0	1	0.15	18176	14578	15959
4.6215	1	30	2	2654.9	1	7	5	0	1	0	1	0.15	18176	14578	15959
7.9043	1	10	2	228.1	1	7	4	1	2	0	2	0.15	23764	21459	21687
10.209	1	31	-99	-99	1	7	4	1	2	0	2	0.15	23764	21459	21687
13.4089	1	10	2	291.5	1	3	4	1	2	0	3	0.15	29683	26964	27255
16.128	1	31	-99	-99	1	3	4	1	2	0	3	0.15	29683	26964	27255
19.5932	1	10	2	195.2	1	2	7	1	2	0	4	0.15	35685	33148	33343
22.1299	1	31	-99	-99	1	2	7	1	2	0	4	0.15	35685	33148	33343
24.6998	1	10	2	264.6	1	8	4	1	2	0	5	0.15	40775	38255	38519
27.22	1	31	-99	-99	1	8	4	1	2	0	5	0.15	40775	38255	38519
29.8065	1	10	2	245.9	1	7	5	1	2	0	6	0.15	45235	43361	43607
31.68	1	31	-99	-99	1	7	5	1	2	0	6	0.15	45235	43361	43607
34.3328	1	10	2	327.6	1	7	5	1	2	0	7	0.15	50209	47888	48215
36.654	1	31	-99	-99	1	7	5	1	2	0	7	0.15	50209	47888	48215
39.7876	1	10	2	616.8	1	7	4	1	2	0	8	0.15	55879	53342	53959
42.3243	1	31	-99	-99	1	7	4	1	2	0	8	0.15	55879	53342	53959
45.2258	1	10	2	482.6	1	7	5	1	2	0	9	0.15	61483	58781	59263
47.9284	1	31	-99	-99	1	7	5	1	2	0	9	0.15	61483	58781	59263
50.664	1	10	2	836.4	1	2	4	0	2	0	10	0.15	67071	64219	65055
53.5158	1	30	-99	-99	1	2	4	0	2	0	10	0.15	67071	64219	65055
56.5499	1	10	1	318.5	1	7	2	0	1	0	11	0.15	72459	70105	70423
58.9043	1	30	1	2460.1	1	7	2	0	1	0	11	0.15	72459	70105	70423
61.4576	1	10	1	578.8	1	5	3	0	1	0	12	0.15	77284	75012	75591
63.729	1	30	-99	-99	1	5	3	0	1	0	12	0.15	77284	75012	75591
66.4813	1	10	1	115.1	1	6	7	0	1	0	13	0.15	82158	80036	80151
68.6036	1	30	2	2016.8	1	6	7	0	1	0	13	0.15	82158	80036	80151
71.4056	1	10	2	14.8	1	3	5	1	2	0	14	0.15	86552	84960	84975
72.9973	1	31	2	2487.1	1	3	5	1	2	0	14	0.15	86552	84960	84975
75.6003	1	10	2	244.1	1	5	5	1	2	0	15	0.15	91443	89155	89399
77.8883	1	31	2	2580	1	5	5	1	2	0	15	0.15	91443	89155	89399
80.4748	1	10	-99	-99	1	4	7	1	2	0	16	0.15	95572	94030	94023
82.0167	1	31	-99	-99	1	4	7	1	2	0	16	0.15	95572	94030	94023
84.6364	1	10	2	208	1	7	7	1	2	0	17	0.15	100446	98191	98399
86.8912	1	31	2	2801.2	1	7	7	1	2	0	17	0.15	100446	98191	98399
89.8093	1	10	2	1115.1	1	4	8	0	2	0	18	0.15	106780	103364	104479
93.2248	1	30	1	2219.6	1	4	8	0	2	0	18	0.15	106780	103364	104479
95.7615	1	10	1	282.9	1	3	5	1	1	1	19	0.85	111306	109316	109599
97.7511	1	31	-99	-99	1	3	5	1	1	1	19	0.85	111306	109316	109599
100.5034	1	10	1	509	1	4	6	1	1	1	20	0.85	116413	114058	114567
102.8577	1	31	-99	-99	1	4	6	1	1	1	20	0.85	116413	114058	114567
105.6929	1	10	1	599.5	1	2	2	1	1	1	21	0.85	122149	119248	119847
108.5944	1	31	-99	-99	1	2	2	1	1	1	21	0.85	122149	119248	119847
111.612	1	10	1	880.4	1	3	4	1	1	1	22	0.85	127687	125167	126047
114.1321	1	31	-99	-99	1	3	4	1	1	1	22	0.85	127687	125167	126047
116.8844	1	10	1	1688	1	3	7	1	1	1	23	0.85	134203	130439	132127
120.648	1	31	-99	-99	1	3	7	1	1	1	23	0.85	134203	130439	132127
123.4169	1	10	1	2755.5	1	7	5	1	1	1	24	0.85	141365	136972	139727
127.8106	1	31	-99	-99	1	7	5	1	1	1	24	0.85	141365	136972	139727
131.3089	1	10	1	319.5	1	3	3	1	1	1	25	0.85	146804	144864	145183
133.2488	1	31	-99	-99	1	3	3	1	1	1	25	0.85	146804	144864	145183
136.1503	1	10	1	694.1	1	3	4	1	1	1	26	0.85	152656	149705	150399
139.1015	1	31	-99	-99	1	3	4	1	1	1	26	0.85	152656	149705	150399
142.2849	1	10	1	2503.5	1	7	7	0	1	1	27	0.85	160482	155840	158343
146.9273	1	30	2	2885.1	1	7	7	0	1	1	27	0.85	160482	155840	158343
149.8951	1	10	2	453.3	1	3	3	0	2	1	28	0.85	166053	163450	163903
152.4981	1	30	1	2506.3	1	3	3	0	2	1	28	0.85	166053	163450	163903
155.8141	1	10	1	30.3	1	6	7	1	1	1	29	0.85	171292	169369	169399
157.7374	1	31	-99	-99	1	6	7	1	1	1	29	0.85	171292	169369	169399
161.2192	1	10	1	169.2	1	2	8	1	1	1	30	0.85	176896	174774	174943
163.3414	1	31	2	3743	1	2	8	1	1	1	30	0.85	176896	174774	174943
168.4149	1	10	1	1013.5	1	8	5	1	1	0	31	0.75	184921	181970	182983
171.3661	1	31	-99	-99	1	8	5	1	1	0	31	0.75	184921	181970	182983
174.3505	1	10	1	237.9	1	8	5	1	1	0	32	0.75	190260	187905	188143
176.7049	1	31	-99	-99	1	8	5	1	1	0	32	0.75	190260	187905	188143
180.1369	1	10	1	395.4	1	6	5	1	1	0	33	0.75	195665	193692	194087
182.1099	1	31	-99	-99	1	6	5	1	1	0	33	0.75	195665	193692	194087
184.8788	1	10	1	365.6	1	2	2	1	1	0	34	0.75	200655	198434	198799
187.1005	1	31	-99	-99	1	2	2	1	1	0	34	0.75	200655	198434	198799
190.1844	1	10	1	299.9	1	7	4	1	1	0	35	0.75	205696	203739	204039
192.1408	1	31	-99	-99	1	7	4	1	1	0	35	0.75	205696	203739	204039
195.4236	1	10	1	380.8	1	8	7	0	1	0	36	0.75	211217	208978	209359
197.6619	1	30	2	2454.4	1	8	7	0	1	0	36	0.75	211217	208978	209359
200.9448	1	10	2	1395.5	1	2	8	0	2	0	37	0.75	217832	214500	215895
204.2773	1	30	-99	-99	1	2	8	0	2	0	37	0.75	217832	214500	215895
207.3612	1	10	1	5851.2	1	4	6	0	1	0	38	0.75	228758	220916	226767
215.2035	1	30	-99	-99	1	4	6	0	1	0	38	0.75	228758	220916	226767
218.2376	1	10	2	6.7	1	2	7	0	2	0	39	0.75	233799	231792	231799
220.2438	1	30	1	3032.5	1	2	7	0	2	0	39	0.75	233799	231792	231799
223.394	1	10	1	802.3	1	2	7	0	1	0	40	0.75	239718	236949	237751
226.1629	1	30	2	2289.4	1	2	7	0	1	0	40	0.75	239718	236949	237751
229.2633	1	10	2	197	1	5	3	0	2	0	41	0.75	245106	242818	243015
231.5514	1	30	-99	-99	1	5	3	0	2	0	41	0.75	245106	242818	243015
234.4031	1	10	2	57.2	1	7	3	1	2	0	42	0.75	250329	247958	248015
236.774	1	31	-99	-99	1	7	3	1	2	0	42	0.75	250329	247958	248015
239.7087	1	10	1	223.6	1	6	3	1	1	0	43	0.75	255568	253263	253487
242.0133	1	31	-99	-99	1	6	3	1	1	0	43	0.75	255568	253263	253487
245.3127	1	10	2	235.7	1	7	3	0	2	0	44	0.75	261587	258868	259103
248.0318	1	30	1	2196.5	1	7	3	0	2	0	44	0.75	261587	258868	259103
251.0825	1	10	1	225.8	1	5	2	1	1	0	45	0.75	266793	264637	264863
253.2379	1	31	-99	-99	1	5	2	1	1	0	45	0.75	266793	264637	264863
256.7031	1	10	1	341.3	1	5	4	1	1	0	46	0.75	272563	270258	270599
259.0078	1	31	-99	-99	1	5	4	1	1	0	46	0.75	272563	270258	270599
261.8098	1	10	1	322.5	1	2	5	1	1	0	47	0.75	277818	275365	275687
264.2636	1	31	-99	-99	1	2	5	1	1	0	47	0.75	277818	275365	275687
267.7951	1	10	1	289.2	1	4	7	1	1	0	48	0.75	284119	281350	281639
270.564	1	31	-99	-99	1	4	7	1	1	0	48	0.75	284119	281350	281639
273.4655	1	10	1	290.8	1	7	2	1	1	0	49	0.75	288944	287020	287311
275.3888	1	31	1	2815.5	1	7	2	1	1	0	49	0.75	288944	287020	287311
278.2737	1	10	1	1210.6	1	6	8	0	1	1	50	0.25	295227	291828	293039
281.6725	1	30	2	2531.8	1	6	8	0	1	1	50	0.25	295227	291828	293039
285.0715	1	10	2	76.8	1	7	4	1	2	1	51	0.25	300616	298626	298703
287.061	1	31	-99	-99	1	7	4	1	2	1	51	0.25	300616	298626	298703
290.5097	1	10	1	334.6	1	2	7	1	1	1	52	0.25	305971	304064	304399
292.4164	1	31	-99	-99	1	2	7	1	1	1	52	0.25	305971	304064	304399
295.2018	1	10	1	154.5	1	8	6	0	1	1	53	0.25	311310	308757	308911
297.7551	1	30	2	1417.3	1	8	6	0	1	1	53	0.25	311310	308757	308911
300.6898	1	10	2	18.5	1	6	6	1	2	1	54	0.25	316748	314245	314263
303.1933	1	31	-99	-99	1	6	6	1	2	1	54	0.25	316748	314245	314263
306.128	1	10	2	116.3	1	3	5	1	2	1	55	0.25	322103	319683	319799
308.5487	1	31	-99	-99	1	3	5	1	2	1	55	0.25	322103	319683	319799
311.3838	1	10	2	372.6	1	3	2	1	2	1	56	0.25	326945	324939	325311
313.39	1	31	-99	-99	1	3	2	1	2	1	56	0.25	326945	324939	325311
316.8221	1	10	2	182.2	1	8	2	0	2	1	57	0.25	332880	330377	330559
319.3256	1	30	1	2966.7	1	8	2	0	2	1	57	0.25	332880	330377	330559
322.824	1	10	1	92.3	1	8	8	0	1	1	58	0.25	338402	336379	336471
324.8468	1	30	2	2837.5	1	8	8	0	1	1	58	0.25	338402	336379	336471
327.8477	1	10	2	908.6	1	6	7	1	2	1	59	0.25	344072	341403	342311
330.5171	1	31	-99	-99	1	6	7	1	2	1	59	0.25	344072	341403	342311
333.402	1	10	2	386.4	1	7	7	1	2	1	60	0.25	349411	346957	347343
335.8558	1	31	-99	-99	1	7	7	1	2	1	60	0.25	349411	346957	347343
339.2216	1	10	2	446.7	1	2	3	0	2	1	61	0.25	355529	352776	353223
341.9738	1	30	1	3030.5	1	2	3	0	2	1	61	0.25	355529	352776	353223
345.008	1	10	-99	-99	1	3	6	0	1	1	62	0.25	360784	358563	358559
347.2297	1	30	-99	-99	1	3	6	0	1	1	62	0.25	360784	358563	358559
350.7281	1	10	2	3708.3	1	6	6	1	2	1	63	0.25	369506	364283	367991
355.9508	1	31	-99	-99	1	6	6	1	2	1	63	0.25	369506	364283	367991
358.6201	1	10	2	264.2	1	3	6	0	2	1	64	0.25	374264	372175	372439
360.7092	1	30	1	2615.1	1	3	6	0	2	1	64	0.25	374264	372175	372439
363.4946	1	10	1	221.7	1	4	8	0	1	1	65	0.25	379271	377049	377271
365.7163	1	30	3	3096	1	4	8	0	1	1	65	0.25	379271	377049	377271
369.8282	1	10	1	456.1	1	8	2	0	1	1	66	0.75	385953	383383	383839
372.3981	1	30	2	1374.2	1	8	2	0	1	1	66	0.75	385953	383383	383839
375.6643	1	10	2	204	1	6	6	0	2	1	67	0.75	390993	389219	389423
377.4384	1	30	1	2357.9	1	6	6	0	2	1	67	0.75	390993	389219	389423
380.4393	1	10	-99	-99	1	8	7	1	1	1	68	0.75	396448	393994	393991
382.8932	1	31	-99	-99	1	8	7	1	1	1	68	0.75	396448	393994	393991
385.7449	1	10	1	395.4	1	4	4	1	1	1	69	0.75	401754	399300	399695
388.1988	1	31	-99	-99	1	4	4	1	1	1	69	0.75	401754	399300	399695
391.465	1	10	1	475.3	1	3	6	1	1	1	70	0.75	407739	405020	405495
394.1841	1	31	-99	-99	1	3	6	1	1	1	70	0.75	407739	405020	405495
397.0359	1	10	1	1776.4	1	8	8	1	1	1	71	0.75	413907	410591	412367
400.3519	1	31	1	2612.4	1	8	8	1	1	1	71	0.75	413907	410591	412367
403.6181	1	10	1	154.2	1	3	3	0	1	1	72	0.75	418997	417173	417327
405.4419	1	30	-99	-99	1	3	3	0	1	1	72	0.75	418997	417173	417327
408.8242	1	10	2	3628.1	1	6	5	1	2	1	73	0.75	427784	422379	426007
414.2293	1	31	-99	-99	1	6	5	1	2	1	73	0.75	427784	422379	426007
416.9484	1	10	2	255.9	1	2	3	0	2	1	74	0.75	432360	430503	430759
418.8053	1	30	-99	-99	1	2	3	0	2	1	74	0.75	432360	430503	430759
422.0882	1	10	1	380.1	1	2	3	1	1	1	75	0.75	437583	435643	436023
424.028	1	31	-99	-99	1	2	3	1	1	1	75	0.75	437583	435643	436023
427.1616	1	10	1	282.7	1	6	4	1	1	1	76	0.75	442955	440716	440999
429.3999	1	31	-99	-99	1	6	4	1	1	1	76	0.75	442955	440716	440999
432.4175	1	10	1	202.8	1	5	8	1	1	1	77	0.75	447929	445972	446175
434.3739	1	31	-99	-99	1	5	8	1	1	1	77	0.75	447929	445972	446175
437.607	1	10	1	1181.3	1	8	8	0	1	1	78	0.75	453898	451162	452343
440.3427	1	30	2	3373.7	1	8	8	0	1	1	78	0.75	453898	451162	452343
443.7582	1	10	2	302.1	1	3	2	0	2	1	79	0.75	459817	457313	457615
446.2618	1	30	-99	-99	1	3	2	0	2	1	79	0.75	459817	457313	457615
449.727	1	10	2	861.3	1	8	7	1	2	1	80	0.75	466250	463282	464143
452.6947	1	31	2	2501.6	1	8	7	1	2	1	80	0.75	466250	463282	464143
455.4636	1	10	2	100.7	1	7	2	1	2	1	81	0.75	471439	469018	469119
457.8843	1	31	2	2248	1	7	2	1	2	1	81	0.75	471439	469018	469119
460.7526	1	10	2	35.7	1	6	3	0	2	1	82	0.75	476264	474307	474343
462.7091	1	30	-99	-99	1	6	3	0	2	1	82	0.75	476264	474307	474343
465.7266	1	10	2	797.7	1	3	6	1	2	1	83	0.75	481934	479281	480079
468.3794	1	31	2	2472.9	1	3	6	1	2	1	83	0.75	481934	479281	480079
470.9161	1	10	2	272.2	1	3	2	0	2	0	84	0.25	486593	484471	484743
473.0384	1	30	1	2509.9	1	3	2	0	2	0	84	0.25	486593	484471	484743
476.3212	1	10	1	1571.1	1	6	7	0	1	0	85	0.25	493275	489876	491447
479.7201	1	30	-99	-99	1	6	7	0	1	0	85	0.25	493275	489876	491447
482.7045	1	10	1	3755.8	1	4	4	0	1	0	86	0.25	501930	496259	500015
488.3748	1	30	2	501.5	1	4	4	0	1	0	86	0.25	501930	496259	500015
491.1934	1	10	2	754.9	1	8	8	1	2	0	87	0.25	507666	504748	505503
494.1115	1	31	2	3180.8	1	8	8	1	2	0	87	0.25	507666	504748	505503
497.3777	1	10	2	218.6	1	8	4	1	2	0	88	0.25	513303	510933	511151
499.7487	1	31	-99	-99	1	8	4	1	2	0	88	0.25	513303	510933	511151
502.4512	1	10	2	161.1	1	4	4	1	2	0	89	0.25	517747	516006	516167
504.1921	1	31	-99	-99	1	4	4	1	2	0	89	0.25	517747	516006	516167
507.6076	1	10	2	172.7	1	6	2	1	2	0	90	0.25	523467	521162	521335
509.9122	1	31	-99	-99	1	6	2	1	2	0	90	0.25	523467	521162	521335
513.1453	1	10	2	643	1	7	6	1	2	0	91	0.25	529552	526700	527343
515.997	1	31	-99	-99	1	7	6	1	2	0	91	0.25	529552	526700	527343
518.5338	1	10	2	422.5	1	5	5	1	2	0	92	0.25	534426	532089	532511
520.8715	1	31	2	2548.8	1	5	5	1	2	0	92	0.25	534426	532089	532511
524.1875	1	10	2	112.8	1	2	8	1	2	0	93	0.25	539583	537742	537855
526.0279	1	31	-99	-99	1	2	8	1	2	0	93	0.25	539583	537742	537855
528.7967	1	10	2	103.6	1	7	4	0	2	0	94	0.25	544739	542352	542455
531.1843	1	30	1	2292	1	7	4	0	2	0	94	0.25	544739	542352	542455
533.7707	1	10	1	1089.6	1	4	5	0	1	0	95	0.25	550923	547326	548415
537.3686	1	30	2	1347.7	1	4	5	0	1	0	95	0.25	550923	547326	548415
541.5136	1	10	1	314.7	1	6	5	1	1	0	96	0.85	557456	555068	555383
543.9011	1	31	-99	-99	1	6	5	1	1	0	96	0.85	557456	555068	555383
546.5042	1	10	1	548.1	1	7	7	1	1	0	97	0.85	562629	560059	560607
549.074	1	31	-99	-99	1	7	7	1	1	0	97	0.85	562629	560059	560607
551.9589	1	10	1	477.4	1	7	8	1	1	0	98	0.85	568017	565514	565991
554.4625	1	31	-99	-99	1	7	8	1	1	0	98	0.85	568017	565514	565991
557.4303	1	10	1	694	1	8	8	1	1	0	99	0.85	573572	570985	571679
560.0168	1	31	-99	-99	1	8	8	1	1	0	99	0.85	573572	570985	571679
562.9846	1	10	1	211.7	1	5	5	0	1	0	100	0.85	578910	576539	576751
565.3556	1	30	-99	-99	1	5	5	0	1	0	100	0.85	578910	576539	576751
567.8923	1	10	2	104	1	2	7	0	2	0	101	0.85	583404	581447	581551
569.8487	1	30	1	1651.6	1	2	7	0	2	0	101	0.85	583404	581447	581551
573.2476	1	10	1	92.7	1	4	8	1	1	0	102	0.85	588958	586802	586895
575.403	1	31	-99	-99	1	4	8	1	1	0	102	0.85	588958	586802	586895
577.9895	1	10	1	686.8	1	5	7	1	1	0	103	0.85	593766	591544	592231
580.2112	1	31	1	433.1	1	5	7	1	1	0	103	0.85	593766	591544	592231
583.4609	1	10	1	2743.4	1	6	6	1	1	0	104	0.85	601956	597016	599759
588.4017	1	31	-99	-99	1	6	6	1	1	0	104	0.85	601956	597016	599759
591.3197	1	10	1	228.6	1	5	4	1	1	0	105	0.85	607561	604875	605103
594.0057	1	31	1	2798.6	1	5	4	1	1	0	105	0.85	607561	604875	605103
596.8243	1	10	1	500	1	2	3	1	1	0	106	0.85	613148	610379	610879
599.5932	1	31	-99	-99	1	2	3	1	1	0	106	0.85	613148	610379	610879
603.0749	1	10	1	297.4	1	5	4	1	1	0	107	0.85	619332	616630	616927
605.7775	1	31	-99	-99	1	5	4	1	1	0	107	0.85	619332	616630	616927
608.7784	1	10	1	1441.9	1	4	4	0	1	0	108	0.85	626180	622333	623775
612.625	1	30	-99	-99	1	4	4	0	1	0	108	0.85	626180	622333	623775
615.5762	1	10	1	5844.1	1	6	6	1	1	0	109	0.85	636526	629131	634975
622.9709	1	31	-99	-99	1	6	6	1	1	0	109	0.85	636526	629131	634975
626.3698	1	10	1	42.5	1	8	3	1	1	0	110	0.85	642329	639925	639967
628.7739	1	31	-99	-99	1	8	3	1	1	0	110	0.85	642329	639925	639967
632.1562	1	10	1	352.1	1	3	6	1	1	0	111	0.85	647966	645711	646063
634.411	1	31	1	3385.3	1	3	6	1	1	0	111	0.85	647966	645711	646063
637.8431	1	10	1	1089.2	1	5	5	1	1	0	112	0.85	654449	651398	652487
640.8938	1	31	-99	-99	1	5	5	1	1	0	112	0.85	654449	651398	652487
643.8285	1	10	1	271.8	1	6	3	1	1	0	113	0.85	660069	657383	657655
646.5144	1	31	-99	-99	1	6	3	1	1	0	113	0.85	660069	657383	657655
649.2004	1	10	1	219.9	1	3	7	1	1	0	114	0.85	665209	662755	662975
651.6542	1	31	-99	-99	1	3	7	1	1	0	114	0.85	665209	662755	662975
655.0863	1	10	1	382	1	8	3	1	1	0	115	0.85	670846	668641	669023
657.2914	1	31	-99	-99	1	8	3	1	1	0	115	0.85	670846	668641	669023
660.1763	1	10	1	1348	1	4	3	1	1	1	116	0.15	677229	673731	675079
663.6747	1	31	-99	-99	1	4	3	1	1	1	116	0.15	677229	673731	675079
667.0736	1	10	1	9130.7	1	4	2	0	1	1	117	0.15	692218	680628	689759
678.6629	1	30	2	685.4	1	4	2	0	1	1	117	0.15	692218	680628	689759
681.78	1	10	2	184.3	1	8	8	1	2	1	118	0.15	697954	695335	695519
684.3996	1	31	-99	-99	1	8	8	1	2	1	118	0.15	697954	695335	695519
687.0856	1	10	2	46.7	1	2	3	1	2	1	119	0.15	702547	700640	700687
688.9923	1	31	-99	-99	1	2	3	1	2	1	119	0.15	702547	700640	700687
692.1756	1	10	2	1748.7	1	3	4	1	2	1	120	0.15	709162	705730	707479
695.6077	1	31	2	2772.6	1	3	4	1	2	1	120	0.15	709162	705730	707479
699.1226	1	10	2	137.6	1	8	6	1	2	1	121	0.15	714717	712677	712815
701.1619	1	31	2	2386.3	1	8	6	1	2	1	121	0.15	714717	712677	712815
703.9971	1	10	2	431.2	1	2	2	1	2	1	122	0.15	719591	717552	717983
706.0364	1	31	-99	-99	1	2	2	1	2	1	122	0.15	719591	717552	717983
708.6229	1	10	2	7381.4	1	4	2	1	2	1	123	0.15	731380	722178	729559
717.8248	1	31	2	3027.4	1	4	2	1	2	1	123	0.15	731380	722178	729559
721.0413	1	10	2	155	1	6	5	1	2	1	124	0.15	737249	734596	734751
723.6941	1	31	-99	-99	1	6	5	1	2	1	124	0.15	737249	734596	734751
726.7117	1	10	2	60.5	1	6	6	0	2	1	125	0.15	741858	740266	740327
728.3033	1	30	-99	-99	1	6	6	0	2	1	125	0.15	741858	740266	740327
731.7022	1	10	1	254.1	1	5	6	0	1	1	126	0.15	747595	745257	745511
734.04	1	30	2	1500.3	1	5	6	0	1	1	126	0.15	747595	745257	745511
737.0907	1	10	-99	-99	1	7	7	1	2	1	127	0.15	752519	750646	750639
738.9642	1	31	3	2992	1	7	7	1	2	1	127	0.15	752519	750646	750639
