onset	duration	value	response	rt	good	Bd1	Bd2	F	Resp	buena	nt	prob	ttF	ttp	ttr
1.0253	1	10	1	803.4	1	6	2	0	1	0	1	0.25	17795	15026	15830
3.7942	1	30	-99	-99	1	6	2	0	1	0	1	0.25	17795	15026	15830
6.8449	1	10	1	999.8	1	2	5	0	1	0	2	0.25	23697	20846	21845
9.6966	1	30	-99	-99	1	2	5	0	1	0	2	0.25	23697	20846	21845
12.8634	1	10	1	621.3	1	4	3	0	1	0	3	0.25	29136	26864	27485
15.1349	1	30	-99	-99	1	4	3	0	1	0	3	0.25	29136	26864	27485
18.0861	1	10	1	662.6	1	7	2	0	1	0	4	0.25	34624	32087	32750
20.6229	1	30	-99	-99	1	7	2	0	1	0	4	0.25	34624	32087	32750
23.4746	1	10	1	874.1	1	5	5	1	1	0	5	0.25	40791	37475	38350
26.7906	1	31	-99	-99	1	5	5	1	1	0	5	0.25	40791	37475	38350
29.8247	1	10	1	684	1	3	4	0	1	0	6	0.25	46677	43826	44510
32.6765	1	30	-99	-99	1	3	4	0	1	0	6	0.25	46677	43826	44510
35.3459	1	10	1	1786.8	1	8	3	1	1	0	7	0.25	53326	49347	51134
39.325	1	31	-99	-99	1	8	3	1	1	0	7	0.25	53326	49347	51134
42.6245	1	10	2	2180.2	1	8	8	1	2	0	8	0.25	60621	56625	58806
46.6202	1	31	-99	-99	1	8	8	1	2	0	8	0.25	60621	56625	58806
49.5051	1	10	2	939.6	1	3	2	1	2	0	9	0.25	66722	63506	64446
52.7217	1	31	-99	-99	1	3	2	1	2	0	9	0.25	66722	63506	64446
55.6895	1	10	2	2259.2	1	4	7	1	2	0	10	0.25	74366	69690	71950
60.365	1	31	-99	-99	1	4	7	1	2	0	10	0.25	74366	69690	71950
63.6147	1	10	1	686	1	6	6	0	1	0	11	0.25	80451	77615	78302
66.4499	1	30	-99	-99	1	6	6	0	1	0	11	0.25	80451	77615	78302
69.7493	1	10	1	775.4	1	7	6	1	1	0	12	0.25	86718	83750	84526
72.7171	1	31	-99	-99	1	7	6	1	1	0	12	0.25	86718	83750	84526
75.7181	1	10	1	1350.6	1	7	2	1	1	0	13	0.25	93466	89719	91070
79.4651	1	31	-99	-99	1	7	2	1	1	0	13	0.25	93466	89719	91070
82.1677	1	10	2	4965.1	1	5	2	0	2	0	14	0.25	102850	96168	101134
88.8494	1	30	-99	-99	1	5	2	0	2	0	14	0.25	102850	96168	101134
91.9499	1	10	1	2182.9	1	4	5	0	1	0	15	0.25	110112	105951	108134
96.1114	1	30	-99	-99	1	4	5	0	1	0	15	0.25	110112	105951	108134
99.6098	1	10	1	698.9	1	6	8	0	1	0	16	0.25	116247	113611	114310
102.246	1	30	-99	-99	1	6	8	0	1	0	16	0.25	116247	113611	114310
105.7112	1	10	1	1045.6	1	8	8	1	1	1	17	0.75	123210	119712	120758
109.2096	1	31	-99	-99	1	8	8	1	1	1	17	0.75	123210	119712	120758
112.2603	1	10	1	1392.5	1	4	3	0	1	1	18	0.75	129577	126261	127654
115.5763	1	30	-99	-99	1	4	3	0	1	1	18	0.75	129577	126261	127654
118.627	1	10	2	2329.8	1	2	4	0	2	1	19	0.75	136756	132628	134958
122.7555	1	30	-99	-99	1	2	4	0	2	1	19	0.75	136756	132628	134958
125.4082	1	10	2	572.6	1	3	3	0	2	1	20	0.75	142161	139409	139982
128.1605	1	30	-99	-99	1	3	3	0	2	1	20	0.75	142161	139409	139982
131.5428	1	10	2	1134	1	6	4	0	2	1	21	0.75	148943	145544	146678
134.9417	1	30	-99	-99	1	6	4	0	2	1	21	0.75	148943	145544	146678
138.4069	1	10	2	829.9	1	4	6	0	2	1	22	0.75	155575	152408	153238
141.5737	1	30	-99	-99	1	4	6	0	2	1	22	0.75	155575	152408	153238
144.5747	1	10	1	758.1	1	2	2	0	1	1	23	0.75	161676	158575	159334
147.6751	1	30	-99	-99	1	2	2	0	1	1	23	0.75	161676	158575	159334
151.074	1	10	1	674.8	1	7	3	0	1	1	24	0.75	167893	165075	165750
153.8926	1	30	-99	-99	1	7	3	0	1	1	24	0.75	167893	165075	165750
156.4625	1	10	1	798.3	1	5	6	1	1	1	25	0.75	173614	170463	171262
159.6127	1	31	-99	-99	1	5	6	1	1	1	25	0.75	173614	170463	171262
162.8458	1	10	1	1191	1	5	6	0	1	1	26	0.75	179848	176847	178038
165.8468	1	30	-99	-99	1	5	6	0	1	1	26	0.75	179848	176847	178038
169.0965	1	10	1	1020.3	1	4	4	1	1	1	27	0.75	186131	183097	184118
172.1306	1	31	-99	-99	1	4	4	1	1	1	27	0.75	186131	183097	184118
174.9492	1	10	1	1271.6	1	2	3	1	1	1	28	0.75	192299	188950	190222
178.2983	1	31	3	3882.5	1	2	3	1	1	1	28	0.75	192299	188950	190222
183.206	1	10	2	1678.8	1	7	6	0	2	1	29	0.85	200589	197207	198886
186.5883	1	30	-99	-99	1	7	6	0	2	1	29	0.85	200589	197207	198886
189.5561	1	10	1	624.7	1	5	5	1	1	1	30	0.85	205944	203557	204182
191.9437	1	31	-99	-99	1	5	5	1	1	1	30	0.85	205944	203557	204182
195.442	1	10	1	874.8	1	3	6	1	1	1	31	0.85	212560	209443	210318
198.5591	1	31	-99	-99	1	3	6	1	1	1	31	0.85	212560	209443	210318
201.4605	1	10	1	656.3	1	7	5	1	1	1	32	0.85	218180	215461	216118
204.1797	1	31	-99	-99	1	7	5	1	1	1	32	0.85	218180	215461	216118
207.2801	1	10	1	1516.8	1	3	8	1	1	1	33	0.85	224746	221281	222798
210.7453	1	31	-99	-99	1	3	8	1	1	1	33	0.85	224746	221281	222798
213.8955	1	10	2	1085.4	1	5	5	0	2	1	34	0.85	230781	227896	228982
216.7804	1	30	-99	-99	1	5	5	0	2	1	34	0.85	230781	227896	228982
220.2457	1	10	2	1231.1	1	8	3	0	2	1	35	0.85	237745	234246	235478
223.744	1	30	-99	-99	1	8	3	0	2	1	35	0.85	237745	234246	235478
226.8445	1	10	1	536.3	1	4	3	1	1	1	36	0.85	243166	240845	241382
229.1657	1	31	-99	-99	1	4	3	1	1	1	36	0.85	243166	240845	241382
232.2993	1	10	1	681.5	1	7	4	1	1	1	37	0.85	249401	246300	246982
235.3997	1	31	1	605.1	1	7	4	1	1	1	37	0.85	249401	246300	246982
238.7986	1	10	1	806.2	1	6	8	0	1	1	38	0.85	256049	252799	253606
242.0483	1	30	-99	-99	1	6	8	0	1	1	38	0.85	256049	252799	253606
244.6514	1	10	1	1417.5	1	4	2	1	1	1	39	0.85	262300	258652	260070
248.299	1	31	-99	-99	1	4	2	1	1	1	39	0.85	262300	258652	260070
251.4657	1	10	2	723.1	1	4	6	1	2	1	40	0.85	268086	265467	266190
254.0854	1	31	-99	-99	1	4	6	1	2	1	40	0.85	268086	265467	266190
257.1029	1	10	1	1710	1	8	2	1	1	1	41	0.85	274901	271104	272814
260.8997	1	31	-99	-99	1	8	2	1	1	1	41	0.85	274901	271104	272814
264.1494	1	10	1	1711.5	1	7	4	0	1	1	42	0.85	281582	278150	279862
267.5815	1	30	-99	-99	1	7	4	0	1	1	42	0.85	281582	278150	279862
270.6819	1	10	2	1107	1	8	8	0	2	1	43	0.85	287733	284683	285790
273.7326	1	30	-99	-99	1	8	8	0	2	1	43	0.85	287733	284683	285790
277.2144	1	10	1	2406.5	1	8	8	1	1	1	44	0.85	296139	291215	293622
282.1387	1	31	-99	-99	1	8	8	1	1	1	44	0.85	296139	291215	293622
284.8578	1	10	1	947.1	1	2	2	1	1	1	45	0.85	302291	298859	299806
288.2898	1	31	-99	-99	1	2	2	1	1	1	45	0.85	302291	298859	299806
291.4898	1	10	1	731.1	1	7	5	0	1	0	46	0.15	308558	305491	306222
294.5571	1	30	-99	-99	1	7	5	0	1	0	46	0.15	308558	305491	306222
297.7072	1	10	1	1217.7	1	8	4	0	1	0	47	0.15	315190	311708	312926
301.1891	1	30	-99	-99	1	8	4	0	1	0	47	0.15	315190	311708	312926
303.8584	1	10	1	594.5	1	4	2	0	1	0	48	0.15	320296	317859	318454
306.2957	1	30	-99	-99	1	4	2	0	1	0	48	0.15	320296	317859	318454
309.3464	1	10	1	618.5	1	3	2	0	1	0	49	0.15	325536	323347	323966
311.5349	1	30	-99	-99	1	3	2	0	1	0	49	0.15	325536	323347	323966
314.9504	1	10	1	694.5	1	7	2	0	1	0	50	0.15	331853	328951	329646
317.8519	1	30	-99	-99	1	7	2	0	1	0	50	0.15	331853	328951	329646
320.9192	1	10	1	581.7	1	6	4	0	1	0	51	0.15	337026	334920	335502
323.0249	1	30	-99	-99	1	6	4	0	1	0	51	0.15	337026	334920	335502
325.7274	1	10	2	1541.5	1	3	8	0	2	0	52	0.15	342878	339728	341270
328.8776	1	30	-99	-99	1	3	8	0	2	0	52	0.15	342878	339728	341270
331.7957	1	10	1	1329.2	1	7	2	0	1	0	53	0.15	349311	345796	347126
335.3106	1	30	-99	-99	1	7	2	0	1	0	53	0.15	349311	345796	347126
338.295	1	10	1	3142	1	8	6	0	1	0	54	0.15	356988	352296	355438
342.9871	1	30	-99	-99	1	8	6	0	1	0	54	0.15	356988	352296	355438
345.9052	1	10	2	875.8	1	3	6	1	2	0	55	0.15	363255	359906	360782
349.2544	1	31	-99	-99	1	3	6	1	2	0	55	0.15	363255	359906	360782
352.2388	1	10	2	982.2	1	3	7	1	2	0	56	0.15	369241	366240	367222
355.2397	1	31	-99	-99	1	3	7	1	2	0	56	0.15	369241	366240	367222
358.0583	1	10	1	2922.7	1	8	7	0	1	0	57	0.15	377083	372059	374982
363.0821	1	30	-99	-99	1	8	7	0	1	0	57	0.15	377083	372059	374982
366.2323	1	10	1	628.7	1	3	3	0	1	0	58	0.15	383317	380233	380862
369.3161	1	30	-99	-99	1	3	3	0	1	0	58	0.15	383317	380233	380862
372.715	1	10	1	713.9	1	8	3	0	1	0	59	0.15	389833	386716	387430
375.832	1	30	-99	-99	1	8	3	0	1	0	59	0.15	389833	386716	387430
378.9822	1	10	1	982.8	1	5	3	0	1	0	60	0.15	396017	392983	393966
382.0164	1	30	-99	-99	1	5	3	0	1	0	60	0.15	396017	392983	393966
384.835	1	10	1	722	1	7	2	1	1	0	61	0.15	401588	398836	399558
387.5872	1	31	-99	-99	1	7	2	1	1	0	61	0.15	401588	398836	399558
390.8701	1	10	2	1646.9	1	4	8	1	2	0	62	0.15	408601	404871	406518
394.6006	1	31	-99	-99	1	4	8	1	2	0	62	0.15	408601	404871	406518
397.8005	1	10	2	996.5	1	5	5	0	2	0	63	0.15	414703	411801	412798
400.702	1	30	3	3791	1	5	5	0	2	0	63	0.15	414703	411801	412798
405.5102	1	10	1	2038.8	1	4	8	0	1	1	64	0.25	423855	419511	421550
409.8541	1	30	-99	-99	1	4	8	0	1	1	64	0.25	423855	419511	421550
412.5069	1	10	2	690.1	1	7	7	0	2	1	65	0.25	429044	426508	427198
415.0437	1	30	-99	-99	1	7	7	0	2	1	65	0.25	429044	426508	427198
417.8954	1	10	2	1013.6	1	8	5	1	2	1	66	0.25	434466	431896	432910
420.4653	1	31	-99	-99	1	8	5	1	2	1	66	0.25	434466	431896	432910
423.715	1	10	2	618	1	8	4	1	2	1	67	0.25	440700	437716	438334
426.6994	1	31	-99	-99	1	8	4	1	2	1	67	0.25	440700	437716	438334
429.6838	1	10	1	2353.2	1	2	3	0	1	1	68	0.25	447979	443685	446038
433.978	1	30	-99	-99	1	2	3	0	1	1	68	0.25	447979	443685	446038
436.979	1	10	1	498	1	5	3	1	1	1	69	0.25	453715	450980	451478
439.7146	1	31	-99	-99	1	5	3	1	1	1	69	0.25	453715	450980	451478
442.583	1	10	1	686	1	4	4	0	1	1	70	0.25	458822	456584	457270
444.8213	1	30	-99	-99	1	4	4	0	1	1	70	0.25	458822	456584	457270
447.6399	1	10	2	445.1	1	6	8	1	2	1	71	0.25	463763	461641	462086
449.7621	1	31	-99	-99	1	6	8	1	2	1	71	0.25	463763	461641	462086
452.4315	1	10	2	717.6	1	8	7	1	2	1	72	0.25	469582	466432	467150
455.5817	1	31	-99	-99	1	8	7	1	2	1	72	0.25	469582	466432	467150
459.0966	1	10	1	788.4	1	5	7	0	1	1	73	0.25	475502	473097	473886
461.5007	1	30	-99	-99	1	5	7	0	1	1	73	0.25	475502	473097	473886
464.3691	1	10	1	563.9	1	4	5	0	1	1	74	0.25	481139	478370	478934
467.1379	1	30	-99	-99	1	4	5	0	1	1	74	0.25	481139	478370	478934
469.9068	1	10	2	490.2	1	6	3	1	2	1	75	0.25	486792	483908	484398
472.7917	1	31	-99	-99	1	6	3	1	2	1	75	0.25	486792	483908	484398
475.9916	1	10	2	677.5	1	4	8	1	2	1	76	0.25	492297	489992	490670
478.2962	1	31	-99	-99	1	4	8	1	2	1	76	0.25	492297	489992	490670
481.2806	1	10	2	1532.4	1	4	8	0	2	1	77	0.25	499128	495281	496814
485.1272	1	30	-99	-99	1	4	8	0	2	1	77	0.25	499128	495281	496814
488.5426	1	10	2	1094.4	1	2	3	0	2	1	78	0.25	505942	502543	503638
491.9415	1	30	-99	-99	1	2	3	0	2	1	78	0.25	505942	502543	503638
494.5943	1	10	1	1346.7	1	5	4	0	1	1	79	0.25	511911	508595	509942
497.9103	1	30	-99	-99	1	5	4	0	1	1	79	0.25	511911	508595	509942
501.2429	1	10	1	450.1	1	8	8	0	1	1	80	0.25	517896	515244	515694
503.8957	1	30	-99	-99	1	8	8	0	1	1	80	0.25	517896	515244	515694
506.8304	1	10	2	1190.6	1	2	7	1	2	1	81	0.25	523766	520831	522022
509.765	1	31	-99	-99	1	2	7	1	2	1	81	0.25	523766	520831	522022
512.4012	1	10	2	627.8	1	5	5	1	2	1	82	0.25	528806	526402	527030
514.8053	1	31	-99	-99	1	5	5	1	2	1	82	0.25	528806	526402	527030
517.7897	1	10	2	631.4	1	5	5	1	2	1	83	0.25	534510	531791	532422
520.5088	1	31	-99	-99	1	5	5	1	2	1	83	0.25	534510	531791	532422
523.2445	1	10	2	1752.6	1	8	4	1	2	0	84	0.75	540594	537245	538998
526.5937	1	31	-99	-99	1	8	4	1	2	0	84	0.75	540594	537245	538998
529.9428	1	10	1	1558.3	1	4	6	1	1	0	85	0.75	547077	543944	545502
533.0764	1	31	-99	-99	1	4	6	1	1	0	85	0.75	547077	543944	545502
535.7126	1	10	1	756.5	1	4	8	1	1	0	86	0.75	552582	549713	550470
538.581	1	31	-99	-99	1	4	8	1	1	0	86	0.75	552582	549713	550470
541.383	1	10	2	1686.1	1	3	5	0	2	0	87	0.75	559496	555384	557070
545.4948	1	30	-99	-99	1	3	5	0	2	0	87	0.75	559496	555384	557070
548.33	1	10	1	979.1	1	5	8	0	1	0	88	0.75	565763	562331	563310
551.7621	1	30	-99	-99	1	5	8	0	1	0	88	0.75	565763	562331	563310
555.2273	1	10	2	825.8	1	7	6	0	2	0	89	0.75	571997	569228	570054
557.9961	1	30	-99	-99	1	7	6	0	2	0	89	0.75	571997	569228	570054
560.8479	1	10	1	917.2	1	2	2	0	1	0	90	0.75	577634	574849	575766
563.6333	1	30	-99	-99	1	2	2	0	1	0	90	0.75	577634	574849	575766
566.7338	1	10	1	1023.3	1	3	5	0	1	0	91	0.75	584117	580735	581758
570.1161	1	30	-99	-99	1	3	5	0	1	0	91	0.75	584117	580735	581758
573.1336	1	10	2	943.5	1	4	4	0	2	0	92	0.75	590334	587134	588078
576.3336	1	30	-99	-99	1	4	4	0	2	0	92	0.75	590334	587134	588078
579.119	1	10	1	1958.1	1	2	4	0	1	0	93	0.75	597397	593120	595078
583.3966	1	30	-99	-99	1	2	4	0	1	0	93	0.75	597397	593120	595078
585.9831	1	10	1	1366	1	4	7	1	1	0	94	0.75	603532	599984	601350
589.5312	1	31	-99	-99	1	4	7	1	1	0	94	0.75	603532	599984	601350
592.7643	1	10	1	712.8	1	4	2	0	1	0	95	0.75	609451	606765	607478
595.4503	1	30	3	3498.8	1	4	2	0	1	0	95	0.75	609451	606765	607478
599.9766	1	10	1	1220.5	1	5	5	1	1	0	96	0.85	617459	613977	615198
603.4584	1	31	-99	-99	1	5	5	1	1	0	96	0.85	617459	613977	615198
606.393	1	10	1	1364.1	1	7	3	1	1	0	97	0.85	623793	620394	621758
609.7919	1	31	-99	-99	1	7	3	1	1	0	97	0.85	623793	620394	621758
612.9587	1	10	2	1366.4	1	2	4	1	2	0	98	0.85	630242	626959	628326
616.2415	1	31	-99	-99	1	2	4	1	2	0	98	0.85	630242	626959	628326
618.9938	1	10	1	1899.4	1	6	4	1	1	0	99	0.85	637189	632995	634894
623.1885	1	31	-99	-99	1	6	4	1	1	0	99	0.85	637189	632995	634894
625.7584	1	10	1	766.8	1	3	2	1	1	0	100	0.85	643009	639759	640526
629.0081	1	31	-99	-99	1	3	2	1	1	0	100	0.85	643009	639759	640526
631.893	1	10	2	1408.2	1	3	7	0	2	0	101	0.85	649359	645894	647302
635.3582	1	30	-99	-99	1	3	7	0	2	0	101	0.85	649359	645894	647302
638.3261	1	10	1	991	1	7	5	1	1	0	102	0.85	655344	652327	653318
641.3436	1	31	-99	-99	1	7	5	1	1	0	102	0.85	655344	652327	653318
644.4606	1	10	1	704.5	1	8	2	1	1	0	103	0.85	660915	658461	659166
646.9145	1	31	-99	-99	1	8	2	1	1	0	103	0.85	660915	658461	659166
649.7662	1	10	1	1991	1	5	8	1	1	0	104	0.85	668045	663767	665758
654.0439	1	31	-99	-99	1	5	8	1	1	0	104	0.85	668045	663767	665758
656.8625	1	10	1	622.7	1	8	3	1	1	0	105	0.85	673682	670863	671486
659.681	1	31	1	1084.2	1	8	3	1	1	0	105	0.85	673682	670863	671486
662.7981	1	10	1	1175.1	1	2	3	1	1	0	106	0.85	679535	676799	677974
665.5338	1	31	-99	-99	1	2	3	1	1	0	106	0.85	679535	676799	677974
668.5016	1	10	2	879.6	1	4	3	0	2	0	107	0.85	685835	682502	683382
671.8342	1	30	-99	-99	1	4	3	0	2	0	107	0.85	685835	682502	683382
674.8186	1	10	2	578.6	1	6	8	0	2	0	108	0.85	691456	688819	689398
677.4548	1	30	-99	-99	1	6	8	0	2	0	108	0.85	691456	688819	689398
680.605	1	10	1	1632.2	1	7	5	1	1	0	109	0.85	697773	694606	696238
683.7717	1	31	-99	-99	1	7	5	1	1	0	109	0.85	697773	694606	696238
687.0877	1	10	1	1437.5	1	7	8	1	1	0	110	0.85	704255	701089	702526
690.2545	1	31	-99	-99	1	7	8	1	1	0	110	0.85	704255	701089	702526
693.0565	1	10	1	676.7	1	4	4	0	1	0	111	0.85	709528	707057	707734
695.5269	1	30	-99	-99	1	4	4	0	1	0	111	0.85	709528	707057	707734
698.8761	1	10	2	641.1	1	4	5	1	2	0	112	0.85	715397	712877	713518
701.3962	1	31	-99	-99	1	4	5	1	2	0	112	0.85	715397	712877	713518
704.1817	1	10	2	775.5	1	4	5	1	2	1	113	0.15	721250	718182	718958
707.249	1	31	-99	-99	1	4	5	1	2	1	113	0.15	721250	718182	718958
710.6147	1	10	2	646.5	1	2	3	1	2	1	114	0.15	726953	724616	725262
712.9525	1	31	-99	-99	1	2	3	1	2	1	114	0.15	726953	724616	725262
716.1358	1	10	1	1021.4	1	6	6	0	1	1	115	0.15	732723	730137	731158
718.7223	1	30	-99	-99	1	6	6	0	1	1	115	0.15	732723	730137	731158
721.6238	1	10	1	973.5	1	5	4	0	1	1	116	0.15	738742	735625	736598
724.7408	1	30	-99	-99	1	5	4	0	1	1	116	0.15	738742	735625	736598
728.0568	1	10	1	2044.4	1	2	2	0	1	1	117	0.15	746451	742058	744102
732.4505	1	30	-99	-99	1	2	2	0	1	1	117	0.15	746451	742058	744102
735.1862	1	10	2	2211	1	3	8	1	2	1	118	0.15	753083	749187	751398
739.0825	1	31	-99	-99	1	3	8	1	2	1	118	0.15	753083	749187	751398
742.0006	1	10	2	708.6	1	7	7	1	2	1	119	0.15	758953	756001	756710
744.9518	1	31	-99	-99	1	7	7	1	2	1	119	0.15	758953	756001	756710
747.6378	1	10	2	631.4	1	4	6	1	2	1	120	0.15	764092	761639	762270
750.0916	1	31	-99	-99	1	4	6	1	2	1	120	0.15	764092	761639	762270
752.6615	1	10	2	927.7	1	6	8	1	2	1	121	0.15	769448	766662	767590
755.4469	1	31	-99	-99	1	6	8	1	2	1	121	0.15	769448	766662	767590
758.5805	1	10	1	784.8	1	4	4	0	1	1	122	0.15	775168	772581	773366
761.167	1	30	-99	-99	1	4	4	0	1	1	122	0.15	775168	772581	773366
764.2509	1	10	1	762.3	1	2	5	0	1	1	123	0.15	780722	778252	779014
766.7213	1	30	-99	-99	1	2	5	0	1	1	123	0.15	780722	778252	779014
769.2912	1	10	2	1034.1	1	2	4	1	2	1	124	0.15	786840	783292	784326
772.8393	1	31	3	3198	1	2	4	1	2	1	124	0.15	786840	783292	784326
