onset	duration	value	response	rt	good	Bd1	Bd2	F	Resp	buena	nt	prob	ttF	ttp	ttr
1.0221	1	10	1	1454.9	1	5	6	0	1	1	1	0.25	63440	60289	61744
4.1723	1	30	-99	-99	1	5	6	0	1	1	1	0.25	63440	60289	61744
6.908	1	10	2	489	1	8	4	0	2	1	2	0.25	68878	66175	66664
9.6105	1	30	-99	-99	1	8	4	0	2	1	2	0.25	68878	66175	66664
12.8934	1	10	1	751.6	1	6	6	0	1	1	3	0.25	74830	72161	72912
15.5627	1	30	-99	-99	1	6	6	0	1	1	3	0.25	74830	72161	72912
18.6466	1	10	1	446.4	1	2	5	1	1	1	4	0.25	80053	77914	78360
20.7854	1	31	-99	-99	1	2	5	1	1	1	4	0.25	80053	77914	78360
23.5045	1	10	2	292.5	1	5	4	1	2	1	5	0.25	84645	82772	83064
25.378	1	31	-99	-99	1	5	4	1	2	1	5	0.25	84645	82772	83064
28.7272	1	10	1	573.7	1	7	4	0	1	1	6	0.25	90962	87994	88568
31.695	1	30	-99	-99	1	7	4	0	1	1	6	0.25	90962	87994	88568
34.7789	1	10	1	978.1	1	3	4	0	1	1	7	0.25	97147	94046	95024
37.8793	1	30	-99	-99	1	3	4	0	1	1	7	0.25	97147	94046	95024
41.3445	1	10	2	468.4	1	6	5	0	2	1	8	0.25	103248	100612	101080
43.9807	1	30	-99	-99	1	6	5	0	2	1	8	0.25	103248	100612	101080
47.4294	1	10	2	1207.5	1	2	8	1	2	1	9	0.25	110178	106697	107904
50.9111	1	31	-99	-99	1	2	8	1	2	1	9	0.25	110178	106697	107904
54.3598	1	10	2	757.1	1	5	3	0	2	1	10	0.25	116661	113627	114384
57.3939	1	30	-99	-99	1	5	3	0	2	1	10	0.25	116661	113627	114384
59.9804	1	10	2	1408.5	1	5	5	0	2	1	11	0.25	122845	119248	120656
63.5782	1	30	-99	-99	1	5	5	0	2	1	11	0.25	122845	119248	120656
66.8942	1	10	1	894.7	1	8	3	0	1	1	12	0.25	129212	126161	127056
69.9449	1	30	-99	-99	1	8	3	0	1	1	12	0.25	129212	126161	127056
73.0619	1	10	1	431	1	5	5	0	1	1	13	0.25	134534	132329	132760
75.2671	1	30	-99	-99	1	5	5	0	1	1	13	0.25	134534	132329	132760
78.1686	1	10	1	460.3	1	6	7	1	1	1	14	0.25	139442	137436	137896
80.1747	1	31	-99	-99	1	6	7	1	1	1	14	0.25	139442	137436	137896
83.441	1	10	2	507.9	1	3	6	1	2	1	15	0.25	145643	142708	143216
86.3756	1	31	-99	-99	1	3	6	1	2	1	15	0.25	145643	142708	143216
89.1113	1	10	1	845.6	1	8	6	0	1	1	16	0.25	151031	148379	149224
91.7641	1	30	-99	-99	1	8	6	0	1	1	16	0.25	151031	148379	149224
95.2293	1	10	1	1103.6	1	8	6	1	1	0	17	0.75	157663	154497	155600
98.3961	1	31	-99	-99	1	8	6	1	1	0	17	0.75	157663	154497	155600
101.3473	1	10	2	473.6	1	2	8	0	2	0	18	0.75	163118	160615	161088
103.8509	1	30	-99	-99	1	2	8	0	2	0	18	0.75	163118	160615	161088
106.9348	1	10	2	334.1	1	6	4	0	2	0	19	0.75	168109	166202	166536
108.8414	1	30	-99	-99	1	6	4	0	2	0	19	0.75	168109	166202	166536
111.5274	1	10	2	1717.5	1	4	5	0	2	0	20	0.75	174111	170795	172512
114.8434	1	30	-99	-99	1	4	5	0	2	0	20	0.75	174111	170795	172512
118.3086	1	10	1	784.2	1	7	5	1	1	0	21	0.75	180809	177576	178360
121.5417	1	31	-99	-99	1	7	5	1	1	0	21	0.75	180809	177576	178360
124.4266	1	10	1	554.2	1	7	2	1	1	0	22	0.75	186479	183694	184248
127.212	1	31	-99	-99	1	7	2	1	1	0	22	0.75	186479	183694	184248
130.3954	1	10	1	497.4	1	4	8	1	1	0	23	0.75	192050	189663	190160
132.7829	1	31	-99	-99	1	4	8	1	1	0	23	0.75	192050	189663	190160
135.9662	1	10	1	406.6	1	4	4	1	1	0	24	0.75	198102	195233	195640
138.8346	1	31	-99	-99	1	4	4	1	1	0	24	0.75	198102	195233	195640
142.2168	1	10	1	1100	1	4	3	1	1	0	25	0.75	204949	201484	202584
145.682	1	31	-99	-99	1	4	3	1	1	0	25	0.75	204949	201484	202584
148.4841	1	10	1	976.7	1	2	7	0	1	0	26	0.75	210702	207751	208728
151.4353	1	30	-99	-99	1	2	7	0	1	0	26	0.75	210702	207751	208728
154.8342	1	10	2	498.6	1	7	3	0	2	0	27	0.75	216157	214101	214600
156.8901	1	30	-99	-99	1	7	3	0	2	0	27	0.75	216157	214101	214600
159.6092	1	10	1	419.6	1	5	7	0	1	0	28	0.75	221794	218876	219296
162.5273	1	30	-99	-99	1	5	7	0	1	0	28	0.75	221794	218876	219296
165.9925	1	10	1	420.3	1	5	4	1	1	0	29	0.75	228128	225260	225680
168.8608	1	31	3	4480	1	5	4	1	1	0	29	0.75	228128	225260	225680
174.3653	1	10	1	4063.5	1	3	8	0	1	1	30	0.15	240066	233633	237696
180.7984	1	30	-99	-99	1	3	8	0	1	1	30	0.15	240066	233633	237696
184.2967	1	10	2	364.1	1	8	5	0	2	1	31	0.15	245736	243564	243928
186.4687	1	30	-99	-99	1	8	5	0	2	1	31	0.15	245736	243564	243928
189.851	1	10	2	369.8	1	8	7	1	2	1	32	0.15	251439	249118	249488
192.1722	1	31	-99	-99	1	8	7	1	2	1	32	0.15	251439	249118	249488
195.2063	1	10	2	702.5	1	8	6	1	2	1	33	0.15	257375	254474	255176
198.1078	1	31	-99	-99	1	8	6	1	2	1	33	0.15	257375	254474	255176
201.3575	1	10	2	655.3	1	2	8	1	2	1	34	0.15	263195	260625	261280
203.9274	1	31	-99	-99	1	2	8	1	2	1	34	0.15	263195	260625	261280
207.2102	1	10	2	146.5	1	8	7	1	2	1	35	0.15	268268	266477	266624
209.0008	1	31	-99	-99	1	8	7	1	2	1	35	0.15	268268	266477	266624
212.5158	1	10	2	584.9	1	8	6	1	2	1	36	0.15	274170	271783	272368
214.9033	1	31	2	1205.5	1	8	6	1	2	1	36	0.15	274170	271783	272368
218.3353	1	10	2	605.4	1	5	6	1	2	1	37	0.15	280305	277603	278208
221.0378	1	31	-99	-99	1	5	6	1	2	1	37	0.15	280305	277603	278208
224.4699	1	10	2	598.8	1	8	8	1	2	1	38	0.15	285909	283737	284336
226.6419	1	31	-99	-99	1	8	8	1	2	1	38	0.15	285909	283737	284336
229.9413	1	10	2	655.4	1	3	6	1	2	1	39	0.15	291878	289208	289864
232.6106	1	31	-99	-99	1	3	6	1	2	1	39	0.15	291878	289208	289864
235.8769	1	10	2	495.9	1	2	6	1	2	1	40	0.15	297465	295144	295640
238.1981	1	31	-99	-99	1	2	6	1	2	1	40	0.15	297465	295144	295640
241.5141	1	10	2	354.6	1	5	7	1	2	1	41	0.15	303102	300781	301136
243.8353	1	31	2	2953.4	1	5	7	1	2	1	41	0.15	303102	300781	301136
247.1015	1	10	2	631.2	1	2	4	1	2	1	42	0.15	309303	306369	307000
250.0362	1	31	-99	-99	1	2	4	1	2	1	42	0.15	309303	306369	307000
252.6392	1	10	2	365.5	1	5	5	1	2	1	43	0.15	314377	311906	312272
255.1096	1	31	-99	-99	1	5	5	1	2	1	43	0.15	314377	311906	312272
257.7458	1	10	2	442.9	1	2	4	1	2	1	44	0.15	319401	317013	317456
260.1333	1	31	-99	-99	1	2	4	1	2	1	44	0.15	319401	317013	317456
263.2172	1	10	2	435.5	1	8	3	1	2	1	45	0.15	325436	322484	322920
266.1684	1	31	-99	-99	1	8	3	1	2	1	45	0.15	325436	322484	322920
268.9704	1	10	2	906.3	1	3	4	0	2	0	46	0.85	331603	328238	329144
272.3362	1	30	-99	-99	1	3	4	0	2	0	46	0.85	331603	328238	329144
274.8729	1	10	2	1251.8	1	7	6	0	2	0	47	0.85	337091	334140	335392
277.8241	1	30	-99	-99	1	7	6	0	2	0	47	0.85	337091	334140	335392
280.5101	1	10	2	638.5	1	8	8	0	2	0	48	0.85	341949	339777	340416
282.682	1	30	-99	-99	1	8	8	0	2	0	48	0.85	341949	339777	340416
285.2022	1	10	1	602.4	1	6	4	1	1	0	49	0.85	347404	344469	345072
288.1368	1	31	-99	-99	1	6	4	1	1	0	49	0.85	347404	344469	345072
290.9223	1	10	1	698.3	1	6	5	1	1	0	50	0.85	353373	350189	350888
294.1056	1	31	-99	-99	1	6	5	1	1	0	50	0.85	353373	350189	350888
297.4216	1	10	1	583	1	7	6	1	1	0	51	0.85	359723	356689	357272
300.4557	1	31	-99	-99	1	7	6	1	1	0	51	0.85	359723	356689	357272
303.8878	1	10	1	940.8	1	5	5	0	1	0	52	0.85	366007	363155	364096
306.7395	1	30	-99	-99	1	5	5	0	1	0	52	0.85	366007	363155	364096
309.5747	1	10	1	2093.9	1	7	3	1	1	0	53	0.85	373020	368842	370936
313.7528	1	31	-99	-99	1	7	3	1	1	0	53	0.85	373020	368842	370936
317.1186	1	10	1	934	1	3	7	1	1	0	54	0.85	379718	376386	377320
320.4511	1	31	-99	-99	1	3	7	1	1	0	54	0.85	379718	376386	377320
323.7837	1	10	1	508.9	1	4	8	1	1	0	55	0.85	385886	383051	383560
326.6189	1	31	-99	-99	1	4	8	1	1	0	55	0.85	385886	383051	383560
329.5535	1	10	1	1403.1	1	6	4	1	1	0	56	0.85	392369	388821	390224
333.1016	1	31	-99	-99	1	6	4	1	1	0	56	0.85	392369	388821	390224
336.6	1	10	1	2724.6	1	6	3	1	1	0	57	0.85	400791	395867	398592
341.5242	1	31	-99	-99	1	6	3	1	1	0	57	0.85	400791	395867	398592
352.467	1	10	1	3745.6	1	6	6	1	1	1	58	0.75	417438	411734	415480
358.1705	1	31	-99	-99	1	6	6	1	1	1	58	0.75	417438	411734	415480
361.6854	1	10	1	807.2	1	3	2	1	1	1	59	0.75	424202	420953	421760
364.9351	1	31	-99	-99	1	3	2	1	1	1	59	0.75	424202	420953	421760
368.1682	1	10	1	692.3	1	2	6	1	1	1	60	0.75	430271	427435	428128
371.0033	1	31	-99	-99	1	2	6	1	1	1	60	0.75	430271	427435	428128
374.2198	1	10	1	912.7	1	5	5	1	1	1	61	0.75	436786	433487	434400
377.5193	1	31	-99	-99	1	5	5	1	1	1	61	0.75	436786	433487	434400
380.2549	1	10	1	1925.6	1	5	2	1	1	1	62	0.75	443717	439522	441448
384.4497	1	31	-99	-99	1	5	2	1	1	1	62	0.75	443717	439522	441448
387.5501	1	10	1	550.4	1	7	7	1	1	1	63	0.75	449337	446817	447368
390.0703	1	31	-99	-99	1	7	7	1	1	1	63	0.75	449337	446817	447368
392.7396	1	10	1	440.9	1	7	5	0	1	1	64	0.75	454875	452007	452448
395.608	1	30	-99	-99	1	7	5	0	1	1	64	0.75	454875	452007	452448
398.4597	1	10	1	1088.8	1	2	2	1	1	1	65	0.75	460778	457727	458816
401.5104	1	31	-99	-99	1	2	2	1	1	1	65	0.75	460778	457727	458816
404.9425	1	10	1	918	1	2	6	1	1	1	66	0.75	467310	464210	465128
408.0429	1	31	-99	-99	1	2	6	1	1	1	66	0.75	467310	464210	465128
410.7786	1	10	1	697.9	1	7	4	0	1	1	67	0.75	473213	470046	470744
413.9454	1	30	-99	-99	1	7	4	0	1	1	67	0.75	473213	470046	470744
416.8137	1	10	1	1238.8	1	6	4	1	1	1	68	0.75	479248	476081	477320
419.9805	1	31	-99	-99	1	6	4	1	1	1	68	0.75	479248	476081	477320
422.6996	1	10	1	696.9	1	2	3	1	1	1	69	0.75	484454	481967	482664
425.1866	1	31	-99	-99	1	2	3	1	1	1	69	0.75	484454	481967	482664
428.2538	1	10	1	750.6	1	8	4	1	1	1	70	0.75	490157	487521	488272
430.8901	1	31	-99	-99	1	8	4	1	1	1	70	0.75	490157	487521	488272
434.2724	1	10	1	732.1	1	8	5	1	1	1	71	0.75	496093	493540	494272
436.8257	1	31	-99	-99	1	8	5	1	1	1	71	0.75	496093	493540	494272
439.9095	1	10	1	1103	1	2	6	1	1	1	72	0.75	502045	499177	500280
442.7779	1	31	-99	-99	1	2	6	1	1	1	72	0.75	502045	499177	500280
446.2596	1	10	1	736.8	1	4	3	1	1	1	73	0.75	508047	505527	506264
448.7798	1	31	-99	-99	1	4	3	1	1	1	73	0.75	508047	505527	506264
451.3994	1	10	1	1765	1	5	2	1	1	1	74	0.75	514629	510667	512432
455.362	1	31	-99	-99	1	5	2	1	1	1	74	0.75	514629	510667	512432
458.5951	1	10	1	2425.3	1	5	7	0	1	0	75	0.25	522206	517862	520288
462.9391	1	30	-99	-99	1	5	7	0	1	0	75	0.25	522206	517862	520288
466.255	1	10	1	2613.4	1	3	4	1	1	0	76	0.25	530612	525522	528136
471.3451	1	31	-99	-99	1	3	4	1	1	0	76	0.25	530612	525522	528136
473.8984	1	10	1	1578	1	8	5	0	1	0	77	0.25	536863	533166	534744
477.5957	1	30	-99	-99	1	8	5	0	1	0	77	0.25	536863	533166	534744
480.3148	1	10	2	2945.6	1	5	7	1	2	0	78	0.25	544689	539582	542528
485.4215	1	31	-99	-99	1	5	7	1	2	0	78	0.25	544689	539582	542528
488.754	1	10	1	1650.4	1	3	6	1	1	0	79	0.25	551884	548021	549672
492.6171	1	31	-99	-99	1	3	6	1	1	0	79	0.25	551884	548021	549672
496.016	1	10	1	980.4	1	2	6	1	1	0	80	0.25	558616	555283	556264
499.3486	1	31	-99	-99	1	2	6	1	1	0	80	0.25	558616	555283	556264
502.134	1	10	1	838.4	1	4	6	1	1	0	81	0.25	564618	561401	562240
505.3505	1	31	-99	-99	1	4	6	1	1	0	81	0.25	564618	561401	562240
508.4012	1	10	1	1547.1	1	7	4	0	1	0	82	0.25	570902	567668	569216
511.6343	1	30	-99	-99	1	7	4	0	1	0	82	0.25	570902	567668	569216
514.7016	1	10	1	1206.7	1	7	2	0	1	0	83	0.25	576986	573969	575176
517.7192	1	30	-99	-99	1	7	2	0	1	0	83	0.25	576986	573969	575176
520.3885	1	10	1	1871.9	1	2	6	0	1	0	84	0.25	583287	579656	581528
524.0195	1	30	-99	-99	1	2	6	0	1	0	84	0.25	583287	579656	581528
527.5345	1	10	2	669.8	1	6	4	1	2	0	85	0.25	589720	586802	587472
530.4526	1	31	-99	-99	1	6	4	1	2	0	85	0.25	589720	586802	587472
533.0059	1	10	2	886.5	1	4	7	0	2	0	86	0.25	595158	592273	593160
535.8908	1	30	-99	-99	1	4	7	0	2	0	86	0.25	595158	592273	593160
539.0575	1	10	1	1586.8	1	8	3	0	1	0	87	0.25	602271	598325	599912
543.0036	1	30	-99	-99	1	8	3	0	1	0	87	0.25	602271	598325	599912
546.4853	1	10	1	3023	1	8	5	1	1	0	88	0.25	611290	605753	608775
552.023	1	31	-99	-99	1	8	5	1	1	0	88	0.25	611290	605753	608775
554.6758	1	10	1	872.5	1	3	3	0	1	0	89	0.25	616994	613943	614815
557.7265	1	30	3	6477.8	1	3	3	0	1	0	89	0.25	616994	613943	614815
565.2207	1	10	1	2159.6	1	3	5	0	1	0	90	0.15	628915	624488	626647
569.6475	1	30	2	2388.8	1	3	5	0	1	0	90	0.15	628915	624488	626647
572.5656	1	10	2	446.7	1	3	8	1	2	0	91	0.15	634685	631833	632279
575.4173	1	31	-99	-99	1	3	8	1	2	0	91	0.15	634685	631833	632279
578.3851	1	10	2	2211.2	1	5	7	1	2	0	92	0.15	642079	637652	639863
582.812	1	31	-99	-99	1	5	7	1	2	0	92	0.15	642079	637652	639863
586.1611	1	10	2	2995.2	1	7	5	1	2	0	93	0.15	650767	645428	648423
591.4999	1	31	-99	-99	1	7	5	1	2	0	93	0.15	650767	645428	648423
594.1526	1	10	2	1315.7	1	2	4	1	2	0	94	0.15	656321	653420	654735
597.0541	1	31	-99	-99	1	2	4	1	2	0	94	0.15	656321	653420	654735
600.0054	1	10	2	1134.9	1	3	7	1	2	0	95	0.15	662124	659273	660407
602.8571	1	31	-99	-99	1	3	7	1	2	0	95	0.15	662124	659273	660407
605.5762	1	10	2	2524	1	7	5	1	2	0	96	0.15	669536	664843	667367
610.2683	1	31	-99	-99	1	7	5	1	2	0	96	0.15	669536	664843	667367
613.717	1	10	2	2095.2	1	6	7	1	2	0	97	0.15	676930	672984	675079
617.663	1	31	-99	-99	1	6	7	1	2	0	97	0.15	676930	672984	675079
621.0453	1	10	2	2711	1	6	5	0	2	0	98	0.15	684806	680313	683023
625.5385	1	30	-99	-99	1	6	5	0	2	0	98	0.15	684806	680313	683023
628.7881	1	10	1	1080.1	1	4	7	0	1	0	99	0.15	691637	688055	689135
632.3694	1	30	-99	-99	1	4	7	0	1	0	99	0.15	691637	688055	689135
635.818	1	10	1	610.2	1	3	2	0	1	0	100	0.15	697738	695085	695695
638.4708	1	30	-99	-99	1	3	2	0	1	0	100	0.15	697738	695085	695695
641.7039	1	10	2	4.3	1	3	4	1	2	0	101	0.15	703491	700971	700975
644.224	1	31	-99	-99	1	3	4	1	2	0	101	0.15	703491	700971	700975
646.9597	1	10	2	1028.5	1	5	7	1	2	0	102	0.15	709510	706227	707255
650.2426	1	31	-99	-99	1	5	7	1	2	0	102	0.15	709510	706227	707255
653.0611	1	10	2	727.1	1	6	2	1	2	0	103	0.15	714616	712328	713055
655.3492	1	31	-99	-99	1	6	2	1	2	0	103	0.15	714616	712328	713055
658.3833	1	10	2	980.9	1	7	6	0	2	0	104	0.15	721132	717650	718631
661.8651	1	30	-99	-99	1	7	6	0	2	0	104	0.15	721132	717650	718631
664.551	1	10	2	2573.2	1	6	6	1	2	0	105	0.15	728643	723818	726391
669.3758	1	31	-99	-99	1	6	6	1	2	0	105	0.15	728643	723818	726391
672.8078	1	10	2	2404.3	1	5	7	1	2	1	106	0.85	736717	732075	734479
677.4502	1	31	-99	-99	1	5	7	1	2	1	106	0.85	736717	732075	734479
680.6502	1	10	2	1729.9	1	5	2	0	2	1	107	0.85	743200	739917	741647
683.933	1	30	-99	-99	1	5	2	0	2	1	107	0.85	743200	739917	741647
686.9505	1	10	2	2605.7	1	4	4	0	2	1	108	0.85	750860	746218	748823
691.5929	1	30	-99	-99	1	4	4	0	2	1	108	0.85	750860	746218	748823
694.4944	1	10	2	1453.7	1	6	5	0	2	1	109	0.85	757293	753762	755215
698.0259	1	30	-99	-99	1	6	5	0	2	1	109	0.85	757293	753762	755215
700.9606	1	10	1	2299.5	1	3	7	1	1	1	110	0.85	764190	760228	762527
704.9232	1	31	-99	-99	1	3	7	1	1	1	110	0.85	764190	760228	762527
707.5096	1	10	2	2014.5	1	2	5	0	2	1	111	0.85	770358	766777	768791
711.0909	1	30	-99	-99	1	2	5	0	2	1	111	0.85	770358	766777	768791
714.4566	1	10	1	747.5	1	3	7	1	1	1	112	0.85	776857	773724	774471
717.5902	1	31	-99	-99	1	3	7	1	1	1	112	0.85	776857	773724	774471
720.1435	1	10	1	1492.6	1	8	5	1	1	1	113	0.85	783091	779411	780903
723.8243	1	31	-99	-99	1	8	5	1	1	1	113	0.85	783091	779411	780903
726.8916	1	10	1	2464.5	1	4	7	1	1	1	114	0.85	790619	786159	788623
731.3516	1	31	-99	-99	1	4	7	1	1	1	114	0.85	790619	786159	788623
734.2365	1	10	1	1103.6	1	7	2	1	1	1	115	0.85	796256	793504	794607
736.9888	1	31	-99	-99	1	7	2	1	1	1	115	0.85	796256	793504	794607
740.0395	1	10	1	1084.6	1	7	3	1	1	1	116	0.85	802258	799307	800391
742.9907	1	31	-99	-99	1	7	3	1	1	1	116	0.85	802258	799307	800391
746.4559	1	10	1	1148.2	1	8	7	1	1	1	117	0.85	809172	805723	806871
749.9045	1	31	3	8051.6	1	8	7	1	1	1	117	0.85	809172	805723	806871
