onset	duration	value	response	rt	good	Bd1	Bd2	F	Resp	buena	nt	prob	ttF	ttp	ttr
14.2201	1	10	1	1011.8	1	4	8	1	1	1	1	0.25	25969	23034	24046
17.1548	1	31	-99	-99	1	4	8	1	1	1	1	0.25	25969	23034	24046
20.0563	1	10	1	583.6	1	4	2	0	1	1	2	0.25	31440	28870	29454
22.6262	1	30	-99	-99	1	4	2	0	1	1	2	0.25	31440	28870	29454
25.2458	1	10	1	274.1	1	8	5	0	1	1	3	0.25	36166	34060	34334
27.3514	1	30	-99	-99	1	8	5	0	1	1	3	0.25	36166	34060	34334
30.0208	1	10	1	331.1	1	5	3	0	1	1	4	0.25	41637	38835	39166
32.8228	1	30	-99	-99	1	5	3	0	1	1	4	0.25	41637	38835	39166
35.5253	1	10	2	482.6	1	5	6	0	2	1	5	0.25	46395	44339	44822
37.5812	1	30	-99	-99	1	5	6	0	2	1	5	0.25	46395	44339	44822
40.2672	1	10	2	492.7	1	7	2	1	2	1	6	0.25	51933	49081	49574
43.119	1	31	-99	-99	1	7	2	1	2	1	6	0.25	51933	49081	49574
45.9873	1	10	2	588.6	1	7	6	1	2	1	7	0.25	57239	54801	55390
48.4245	1	31	-99	-99	1	7	6	1	2	1	7	0.25	57239	54801	55390
51.1934	1	10	2	422.5	1	2	3	0	2	1	8	0.25	62743	60007	60430
53.9291	1	30	-99	-99	1	2	3	0	2	1	8	0.25	62743	60007	60430
56.7642	1	10	2	803.7	1	8	2	1	2	1	9	0.25	68098	65578	66382
59.2844	1	31	-99	-99	1	8	2	1	2	1	9	0.25	68098	65578	66382
62.1859	1	10	2	502	1	6	8	1	2	1	10	0.25	73603	71000	71502
64.7889	1	31	-99	-99	1	6	8	1	2	1	10	0.25	73603	71000	71502
67.3422	1	10	2	441.7	1	7	8	1	2	1	11	0.25	78179	76156	76598
69.365	1	31	-99	-99	1	7	8	1	2	1	11	0.25	78179	76156	76598
72.2002	1	10	2	535.7	1	2	3	1	2	1	12	0.25	83982	81014	81550
75.168	1	31	-99	-99	1	2	3	1	2	1	12	0.25	83982	81014	81550
77.8042	1	10	2	347.6	1	2	6	1	2	1	13	0.25	89006	86618	86966
80.1917	1	31	-99	-99	1	2	6	1	2	1	13	0.25	89006	86618	86966
83.1098	1	10	2	466.1	1	3	5	1	2	1	14	0.25	94013	91924	92390
85.1988	1	31	-99	-99	1	3	5	1	2	1	14	0.25	94013	91924	92390
88.2993	1	10	2	524.6	1	2	8	1	2	1	15	0.25	99567	97113	97638
90.7531	1	31	-99	-99	1	2	8	1	2	1	15	0.25	99567	97113	97638
94.2183	1	10	2	397.5	1	8	3	1	2	1	16	0.25	105105	103032	103430
96.2908	1	31	-99	-99	1	8	3	1	2	1	16	0.25	105105	103032	103430
99.1757	1	10	2	440.1	1	8	8	1	2	0	17	0.75	109979	107990	108430
101.1653	1	31	-99	-99	1	8	8	1	2	0	17	0.75	109979	107990	108430
104.2326	1	10	2	551.2	1	3	4	0	2	0	18	0.75	115534	113047	113598
106.7196	1	30	-99	-99	1	3	4	0	2	0	18	0.75	115534	113047	113598
109.9361	1	10	2	383.7	1	6	5	0	2	0	19	0.75	120806	118750	119134
111.992	1	30	-99	-99	1	6	5	0	2	0	19	0.75	120806	118750	119134
115.0096	1	10	2	390.2	1	4	6	0	2	0	20	0.75	126012	123824	124214
117.1981	1	30	1	2233.7	1	4	6	0	2	0	20	0.75	126012	123824	124214
119.9835	1	10	1	584.4	1	3	6	1	1	0	21	0.75	131334	128798	129382
122.5203	1	31	-99	-99	1	3	6	1	1	0	21	0.75	131334	128798	129382
125.2891	1	10	1	702.7	1	2	2	0	1	0	22	0.75	136723	134103	134806
127.9088	1	30	-99	-99	1	2	2	0	1	0	22	0.75	136723	134103	134806
130.9097	1	10	1	578.1	1	7	4	1	1	0	23	0.75	142360	139724	140302
133.5459	1	31	-99	-99	1	7	4	1	1	0	23	0.75	142360	139724	140302
136.1821	1	10	1	1185.7	1	4	8	1	1	0	24	0.75	147715	144996	146182
138.9013	1	31	-99	-99	1	4	8	1	1	0	24	0.75	147715	144996	146182
142.1178	1	10	1	378	1	2	2	1	1	0	25	0.75	153817	150932	151310
145.0027	1	31	-99	-99	1	2	2	1	1	0	25	0.75	153817	150932	151310
147.6555	1	10	1	416.3	1	4	8	1	1	0	26	0.75	159404	156470	156886
150.5901	1	31	-99	-99	1	4	8	1	1	0	26	0.75	159404	156470	156886
153.3921	1	10	1	783.7	1	3	7	1	1	0	27	0.75	164561	162206	162990
155.7465	1	31	-99	-99	1	3	7	1	1	0	27	0.75	164561	162206	162990
158.9962	1	10	1	531.5	1	6	7	1	1	0	28	0.75	170629	167810	168342
161.8147	1	31	-99	-99	1	6	7	1	1	0	28	0.75	170629	167810	168342
164.6499	1	10	1	733.8	1	4	2	1	1	0	29	0.75	176614	173464	174198
167.8001	1	31	3	2935.6	1	4	2	1	1	0	29	0.75	176614	173464	174198
171.7627	1	10	2	1741.1	1	5	5	0	2	0	30	0.85	184772	180577	182318
175.9574	1	30	-99	-99	1	5	5	0	2	0	30	0.85	184772	180577	182318
178.6102	1	10	2	533.5	1	6	8	0	2	0	31	0.85	189629	187424	187958
180.8153	1	30	-99	-99	1	6	8	0	2	0	31	0.85	189629	187424	187958
183.3852	1	10	1	358.5	1	4	5	1	1	0	32	0.85	195034	192199	192558
186.2204	1	31	-99	-99	1	4	5	1	1	0	32	0.85	195034	192199	192558
188.9229	1	10	1	420.8	1	5	5	1	1	0	33	0.85	200340	197737	198158
191.526	1	31	-99	-99	1	5	5	1	1	0	33	0.85	200340	197737	198158
194.3943	1	10	1	717.4	1	7	5	1	1	0	34	0.85	206425	203208	203926
197.6108	1	31	-99	-99	1	7	5	1	1	0	34	0.85	206425	203208	203926
200.9931	1	10	1	510.6	1	7	2	1	1	0	35	0.85	212029	209807	210318
203.2148	1	31	-99	-99	1	7	2	1	1	0	35	0.85	212029	209807	210318
205.9505	1	10	1	649.2	1	7	3	1	1	0	36	0.85	217500	214765	215414
208.6862	1	31	-99	-99	1	7	3	1	1	0	36	0.85	217500	214765	215414
211.5048	1	10	1	462.9	1	5	8	1	1	0	37	0.85	222325	220319	220782
213.511	1	31	-99	-99	1	5	8	1	1	0	37	0.85	222325	220319	220782
216.827	1	10	1	548.7	1	4	3	1	1	0	38	0.85	228012	225641	226190
219.1979	1	31	-99	-99	1	4	3	1	1	0	38	0.85	228012	225641	226190
221.8341	1	10	1	437.6	1	4	3	1	1	0	39	0.85	233036	230648	231086
224.2216	1	31	-99	-99	1	4	3	1	1	0	39	0.85	233036	230648	231086
226.9407	1	10	1	875	1	4	8	1	1	0	40	0.85	238275	235755	236630
229.4609	1	31	-99	-99	1	4	8	1	1	0	40	0.85	238275	235755	236630
232.2131	1	10	1	498.6	1	6	5	1	1	0	41	0.85	243348	241027	241526
234.5343	1	31	-99	-99	1	6	5	1	1	0	41	0.85	243348	241027	241526
237.4358	1	10	1	331.9	1	5	2	0	1	0	42	0.85	248936	246250	246582
240.1218	1	30	-99	-99	1	5	2	0	1	0	42	0.85	248936	246250	246582
243.587	1	10	1	708.7	1	5	4	1	1	0	43	0.85	255054	252401	253110
246.2398	1	31	-99	-99	1	5	4	1	1	0	43	0.85	255054	252401	253110
249.705	1	10	1	678.6	1	4	2	1	1	0	44	0.85	260824	258519	259198
252.0096	1	31	-99	-99	1	4	2	1	1	0	44	0.85	260824	258519	259198
255.1598	1	10	1	519.8	1	7	5	1	1	0	45	0.85	266146	263974	264494
257.3318	1	31	1	2779.9	1	7	5	1	1	0	45	0.85	266146	263974	264494
260.7141	1	10	1	557.5	1	2	7	0	1	0	46	0.85	271965	269528	270086
263.1513	1	30	-99	-99	1	2	7	0	1	0	46	0.85	271965	269528	270086
266.1357	1	10	1	407.9	1	3	6	1	1	0	47	0.85	277387	274950	275358
268.573	1	31	-99	-99	1	3	6	1	1	0	47	0.85	277387	274950	275358
271.6568	1	10	1	454.8	1	7	5	0	1	0	48	0.85	283306	280471	280926
274.492	1	30	-99	-99	1	7	5	0	1	0	48	0.85	283306	280471	280926
277.4266	1	10	1	341	1	5	4	1	1	0	49	0.85	288744	286241	286582
279.9302	1	31	-99	-99	1	5	4	1	1	0	49	0.85	288744	286241	286582
282.6991	1	10	1	436.5	1	7	3	1	1	0	50	0.85	293718	291513	291950
284.9042	1	31	-99	-99	1	7	3	1	1	0	50	0.85	293718	291513	291950
287.5901	1	10	1	385.5	1	7	3	0	1	1	51	0.15	298991	296404	296790
290.1766	1	30	-99	-99	1	7	3	0	1	1	51	0.15	298991	296404	296790
293.1444	1	10	1	991.2	1	6	7	0	1	1	52	0.15	304794	301959	302950
295.9796	1	30	-99	-99	1	6	7	0	1	1	52	0.15	304794	301959	302950
298.9971	1	10	2	442.5	1	7	3	1	2	1	53	0.15	309817	307811	308254
301.0033	1	31	-99	-99	1	7	3	1	2	1	53	0.15	309817	307811	308254
304.369	1	10	2	342.6	1	6	5	1	2	1	54	0.15	315720	313183	313526
306.9058	1	31	-99	-99	1	6	5	1	2	1	54	0.15	315720	313183	313526
310.3212	1	10	2	326.4	1	4	4	1	2	1	55	0.15	321224	319135	319462
312.4103	1	31	-99	-99	1	4	4	1	2	1	55	0.15	321224	319135	319462
315.7926	1	10	2	358.9	1	3	2	1	2	1	56	0.15	326994	324607	324966
318.1801	1	31	-99	-99	1	3	2	1	2	1	56	0.15	326994	324607	324966
320.9158	1	10	2	315.7	1	4	6	1	2	1	57	0.15	332350	329730	330046
323.5354	1	31	-99	-99	1	4	6	1	2	1	57	0.15	332350	329730	330046
327.0338	1	10	2	405.7	1	6	4	1	2	1	58	0.15	338252	335848	336254
329.4379	1	31	-99	-99	1	6	4	1	2	1	58	0.15	338252	335848	336254
332.2233	1	10	2	3264.3	1	6	7	1	2	1	59	0.15	346277	341037	344302
337.4626	1	31	-99	-99	1	6	7	1	2	1	59	0.15	346277	341037	344302
340.1817	1	10	2	361.8	1	4	5	0	2	1	60	0.15	351002	348996	349358
342.1879	1	30	-99	-99	1	4	5	0	2	1	60	0.15	351002	348996	349358
345.4707	1	10	2	1000.8	1	3	7	1	2	1	61	0.15	356822	354285	355286
348.0074	1	31	-99	-99	1	3	7	1	2	1	61	0.15	356822	354285	355286
351.1742	1	10	2	401.3	1	3	8	1	2	1	62	0.15	362674	359988	360390
353.8601	1	31	-99	-99	1	3	8	1	2	1	62	0.15	362674	359988	360390
357.259	1	10	2	332.5	1	8	4	1	2	1	63	0.15	368096	366073	366406
359.2818	1	31	-99	-99	1	8	4	1	2	1	63	0.15	368096	366073	366406
361.8517	1	10	2	867.8	1	8	3	1	2	1	64	0.15	373518	370666	371534
364.7034	1	31	3	2440.1	1	8	3	1	2	1	64	0.15	373518	370666	371534
368.1686	1	10	2	3510.9	1	5	5	0	2	1	65	0.75	382852	376983	380494
374.0379	1	30	-99	-99	1	5	5	0	2	1	65	0.75	382852	376983	380494
376.757	1	10	2	634.5	1	6	2	0	2	1	66	0.75	388058	385571	386206
379.244	1	30	-99	-99	1	6	2	0	2	1	66	0.75	388058	385571	386206
382.5434	1	10	1	496.1	1	5	7	1	1	1	67	0.75	393430	391358	391854
384.6159	1	31	-99	-99	1	5	7	1	1	1	67	0.75	393430	391358	391854
388.1143	1	10	1	885.2	1	7	3	1	1	1	68	0.75	399797	396928	397814
390.9826	1	31	-99	-99	1	7	3	1	1	1	68	0.75	399797	396928	397814
393.6686	1	10	1	962.9	1	3	2	0	1	1	69	0.75	405252	402483	403446
396.4374	1	30	-99	-99	1	3	2	0	1	1	69	0.75	405252	402483	403446
399.9192	1	10	1	464.2	1	2	4	1	1	1	70	0.75	411038	408733	409198
402.2238	1	31	-99	-99	1	2	4	1	1	1	70	0.75	411038	408733	409198
405.573	1	10	1	578.5	1	2	7	0	1	1	71	0.75	416940	414387	414966
408.1263	1	30	-99	-99	1	2	7	0	1	1	71	0.75	416940	414387	414966
411.2101	1	10	1	389.3	1	8	4	1	1	1	72	0.75	422528	420024	420414
413.7137	1	31	-99	-99	1	8	4	1	1	1	72	0.75	422528	420024	420414
416.4991	1	10	1	572.3	1	7	5	1	1	1	73	0.75	427900	425313	425886
419.0856	1	31	-99	-99	1	7	5	1	1	1	73	0.75	427900	425313	425886
421.6887	1	10	1	526.7	1	3	5	0	1	1	74	0.75	433388	430503	431030
424.5736	1	30	-99	-99	1	3	5	0	1	1	74	0.75	433388	430503	431030
427.7569	1	10	1	490.6	1	6	5	0	1	1	75	0.75	439373	436571	437062
430.5589	1	30	-99	-99	1	6	5	0	1	1	75	0.75	439373	436571	437062
433.9412	1	10	2	282.2	1	4	5	0	2	1	76	0.75	445358	442755	443038
436.5443	1	30	-99	-99	1	4	5	0	2	1	76	0.75	445358	442755	443038
439.9597	1	10	2	383.7	1	7	2	0	2	1	77	0.75	451029	448774	449157
442.2146	1	30	-99	-99	1	7	2	0	2	1	77	0.75	451029	448774	449157
445.4643	1	10	1	543.1	1	6	5	1	1	1	78	0.75	456600	454278	454821
447.7855	1	31	-99	-99	1	6	5	1	1	1	78	0.75	456600	454278	454821
451.1015	1	10	1	425.9	1	7	5	1	1	1	79	0.75	461872	459916	460341
453.0579	1	31	-99	-99	1	7	5	1	1	1	79	0.75	461872	459916	460341
456.2413	1	10	1	806.1	1	8	8	1	1	1	80	0.75	468089	465055	465861
459.2754	1	31	-99	-99	1	8	8	1	1	1	80	0.75	468089	465055	465861
462.6908	1	10	1	396.6	1	4	5	0	1	1	81	0.75	474042	471505	471902
465.2276	1	30	-99	-99	1	4	5	0	1	1	81	0.75	474042	471505	471902
468.0793	1	10	1	1352.1	1	6	5	0	1	0	82	0.25	479778	476893	478245
470.9642	1	30	-99	-99	1	6	5	0	1	0	82	0.25	479778	476893	478245
473.6502	1	10	1	349.2	1	3	8	0	1	0	83	0.25	484470	482464	482813
475.6564	1	30	2	2239	1	3	8	0	1	0	83	0.25	484470	482464	482813
478.6076	1	10	2	375.8	1	5	3	1	2	0	84	0.25	489428	487422	487797
480.6138	1	31	-99	-99	1	5	3	1	2	0	84	0.25	489428	487422	487797
484.1121	1	10	2	351.2	1	4	6	1	2	0	85	0.25	495562	492926	493277
486.7483	1	31	-99	-99	1	4	6	1	2	0	85	0.25	495562	492926	493277
490.0643	1	10	2	1775	1	5	5	1	2	0	86	0.25	502228	498878	500653
493.4135	1	31	-99	-99	1	5	5	1	2	0	86	0.25	502228	498878	500653
496.5471	1	10	2	428.2	1	4	5	0	2	0	87	0.25	507450	505361	505789
498.6362	1	30	-99	-99	1	4	5	0	2	0	87	0.25	507450	505361	505789
502.0516	1	10	2	435.7	1	7	5	1	2	0	88	0.25	513767	510866	511301
504.9531	1	31	-99	-99	1	7	5	1	2	0	88	0.25	513767	510866	511301
508.4017	1	10	2	797.6	1	6	4	1	2	0	89	0.25	520349	517216	518013
511.5353	1	31	-99	-99	1	6	4	1	2	0	89	0.25	520349	517216	518013
514.8845	1	10	2	682.8	1	2	4	1	2	0	90	0.25	526020	523699	524381
517.2057	1	31	-99	-99	1	2	4	1	2	0	90	0.25	526020	523699	524381
520.1735	1	10	2	817.8	1	2	6	1	2	0	91	0.25	531873	528988	529805
523.0584	1	31	-99	-99	1	2	6	1	2	0	91	0.25	531873	528988	529805
526.4739	1	10	2	485.4	1	4	7	0	2	0	92	0.25	538289	535288	535773
529.4748	1	30	-99	-99	1	4	7	0	2	0	92	0.25	538289	535288	535773
532.509	1	10	2	530.3	1	7	2	1	2	0	93	0.25	544374	541323	541853
535.5597	1	31	-99	-99	1	7	2	1	2	0	93	0.25	544374	541323	541853
538.5109	1	10	2	424.4	1	8	7	1	2	0	94	0.25	549679	547325	547749
540.8652	1	31	3	6926.1	1	8	7	1	2	0	94	0.25	549679	547325	547749
548.807	1	10	2	2056.3	1	6	5	1	2	1	95	0.85	561484	557621	559677
552.6702	1	31	-99	-99	1	6	5	1	2	1	95	0.85	561484	557621	559677
555.8867	1	10	2	568.5	1	7	8	0	2	1	96	0.85	567553	564701	565269
558.7384	1	30	-99	-99	1	7	8	0	2	1	96	0.85	567553	564701	565269
562.1042	1	10	2	351.1	1	2	2	0	2	1	97	0.85	573604	570918	571269
564.7901	1	30	-99	-99	1	2	2	0	2	1	97	0.85	573604	570918	571269
567.3268	1	10	2	488.5	1	7	5	0	2	1	98	0.85	578164	576141	576629
569.3496	1	30	-99	-99	1	7	5	0	2	1	98	0.85	578164	576141	576629
572.6158	1	10	1	351.4	1	7	8	0	1	1	99	0.85	583701	581430	581781
574.8873	1	30	-99	-99	1	7	8	0	1	1	99	0.85	583701	581430	581781
577.8717	1	10	1	607.5	1	8	2	1	1	1	100	0.85	589703	586686	587293
580.8892	1	31	-99	-99	1	8	2	1	1	1	100	0.85	589703	586686	587293
583.5254	1	10	1	617.8	1	8	4	1	1	1	101	0.85	595340	592340	592957
586.5264	1	31	-99	-99	1	8	4	1	1	1	101	0.85	595340	592340	592957
589.975	1	10	1	1288.2	1	8	8	1	1	1	102	0.85	602437	598789	600077
593.6226	1	31	-99	-99	1	8	8	1	1	1	102	0.85	602437	598789	600077
596.7065	1	10	1	548.7	1	2	6	1	1	1	103	0.85	608008	605521	606069
599.1935	1	31	-99	-99	1	2	6	1	1	1	103	0.85	608008	605521	606069
602.5094	1	10	1	881.8	1	7	4	1	1	1	104	0.85	614275	611324	612205
605.4607	1	31	-99	-99	1	7	4	1	1	1	104	0.85	614275	611324	612205
608.6938	1	10	1	1961.4	1	6	2	1	1	1	105	0.85	621238	617508	619469
612.4242	1	31	-99	-99	1	6	2	1	1	1	105	0.85	621238	617508	619469
615.4252	1	10	1	686	1	7	7	1	1	1	106	0.85	626677	624239	624925
617.8625	1	31	-99	-99	1	7	7	1	1	1	106	0.85	626677	624239	624925
620.4821	1	10	1	725.1	1	6	7	1	1	1	107	0.85	631651	629296	630021
622.8364	1	31	-99	-99	1	6	7	1	1	1	107	0.85	631651	629296	630021
625.3732	1	10	1	938	1	5	6	1	1	1	108	0.85	636989	634187	635125
628.1752	1	31	-99	-99	1	5	6	1	1	1	108	0.85	636989	634187	635125
631.3088	1	10	1	586.4	1	4	2	1	1	1	109	0.85	643024	640123	640709
634.2103	1	31	-99	-99	1	4	2	1	1	1	109	0.85	643024	640123	640709
637.3439	1	10	1	1263.3	1	7	5	0	1	1	110	0.85	649706	646158	647421
640.892	1	30	-99	-99	1	7	5	0	1	1	110	0.85	649706	646158	647421
643.9759	1	10	1	1399.3	1	2	3	1	1	1	111	0.85	656537	652790	654189
647.7229	1	31	-99	-99	1	2	3	1	1	1	111	0.85	656537	652790	654189
651.0223	1	10	1	608.8	1	2	6	0	1	0	112	0.15	662423	659836	660445
653.6088	1	30	-99	-99	1	2	6	0	1	0	112	0.15	662423	659836	660445
656.759	1	10	1	1920.2	1	8	4	0	1	0	113	0.15	669270	665573	667493
660.4563	1	30	-99	-99	1	8	4	0	1	0	113	0.15	669270	665573	667493
663.9713	1	10	1	2275.8	1	3	2	0	1	0	114	0.15	677411	672785	675061
668.5971	1	30	2	2554	1	3	2	0	1	0	114	0.15	677411	672785	675061
671.8302	1	10	2	480.9	1	8	6	1	2	0	115	0.15	683131	680644	681125
674.3172	1	31	-99	-99	1	8	6	1	2	0	115	0.15	683131	680644	681125
676.8705	1	10	2	376.6	1	6	3	0	2	0	116	0.15	688138	685685	686061
679.3243	1	30	-99	-99	1	6	3	0	2	0	116	0.15	688138	685685	686061
682.3916	1	10	2	303.5	1	4	7	0	2	0	117	0.15	693096	691206	691509
684.2817	1	30	-99	-99	1	4	7	0	2	0	117	0.15	693096	691206	691509
686.8682	1	10	1	474.9	1	2	2	0	1	0	118	0.15	698236	695682	696157
689.4215	1	30	-99	-99	1	2	2	0	1	0	118	0.15	698236	695682	696157
692.6214	1	10	1	457.7	1	8	5	0	1	0	119	0.15	704403	701435	701893
695.5892	1	30	-99	-99	1	8	5	0	1	0	119	0.15	704403	701435	701893
698.6068	1	10	1	416.3	1	8	6	0	1	0	120	0.15	710190	707421	707837
701.3756	1	30	-99	-99	1	8	6	0	1	0	120	0.15	710190	707421	707837
704.6253	1	10	2	509.8	1	7	2	1	2	0	121	0.15	716076	713439	713949
707.2615	1	31	-99	-99	1	7	2	1	2	0	121	0.15	716076	713439	713949
710.0801	1	10	2	431	1	8	5	1	2	0	122	0.15	721530	718894	719325
712.7163	1	31	-99	-99	1	8	5	1	2	0	122	0.15	721530	718894	719325
716.0654	1	10	2	349.6	1	2	3	1	2	0	123	0.15	727466	724880	725229
718.6519	1	31	-99	-99	1	2	3	1	2	0	123	0.15	727466	724880	725229
722.0176	1	10	2	549.5	1	8	2	1	2	0	124	0.15	733667	730832	731381
724.8528	1	31	-99	-99	1	8	2	1	2	0	124	0.15	733667	730832	731381
727.5553	1	10	2	467.7	1	5	7	0	2	0	125	0.15	739138	736369	736837
730.3242	1	30	-99	-99	1	5	7	0	2	0	125	0.15	739138	736369	736837
733.093	1	10	2	402	1	5	5	1	2	0	126	0.15	744825	741907	742309
736.0111	1	31	-99	-99	1	5	5	1	2	0	126	0.15	744825	741907	742309
738.9292	1	10	2	349.8	1	7	3	1	2	0	127	0.15	750529	747743	748093
741.7146	1	31	-99	-99	1	7	3	1	2	0	127	0.15	750529	747743	748093
744.384	1	10	2	359	1	7	6	0	2	0	128	0.15	755403	753198	753557
746.5891	1	30	3	3017.9	1	7	6	0	2	0	128	0.15	755403	753198	753557
