onset	duration	value	response	rt	good	Bd1	Bd2	F	Resp	buena	nt	prob	ttF	ttp	ttr
803.2975	1	10	2	2564.7	1	8	3	0	2	1	1	0.25	1614241	1610013	1612578
807.5254	1	30	-99	-99	1	8	3	0	2	1	1	0.25	1614241	1610013	1612578
810.659	1	10	2	1371.1	1	3	3	1	2	1	2	0.25	1620359	1617375	1618746
813.6434	1	31	-99	-99	1	3	3	1	2	1	2	0.25	1620359	1617375	1618746
816.4952	1	10	1	2638.9	1	7	6	0	1	1	3	0.25	1627505	1623211	1625850
820.7893	1	30	-99	-99	1	7	6	0	1	1	3	0.25	1627505	1623211	1625850
823.525	1	10	1	1809.1	1	7	2	1	1	1	4	0.25	1633905	1630241	1632050
827.1892	1	31	-99	-99	1	7	2	1	1	1	4	0.25	1633905	1630241	1632050
829.9746	1	10	2	3263.5	1	5	8	1	2	1	5	0.25	1641565	1636691	1639954
834.8491	1	31	-99	-99	1	5	8	1	2	1	5	0.25	1641565	1636691	1639954
837.7009	1	10	1	2865.2	1	5	3	0	1	1	6	0.25	1649590	1644417	1647282
842.8738	1	30	-99	-99	1	5	3	0	1	1	6	0.25	1649590	1644417	1647282
845.6758	1	10	1	1586.3	1	6	6	0	1	1	7	0.25	1656172	1652392	1653978
849.456	1	30	-99	-99	1	6	6	0	1	1	7	0.25	1656172	1652392	1653978
852.5565	1	10	1	1313.5	1	5	7	0	1	1	8	0.25	1662423	1659272	1660586
855.7066	1	30	-99	-99	1	5	7	0	1	1	8	0.25	1662423	1659272	1660586
858.9563	1	10	2	2305.8	1	4	5	0	2	1	9	0.25	1669933	1665672	1667978
863.2173	1	30	-99	-99	1	4	5	0	2	1	9	0.25	1669933	1665672	1667978
865.8204	1	10	1	1209.6	1	2	2	0	1	1	10	0.25	1676118	1672536	1673746
869.4016	1	30	-99	-99	1	2	2	0	1	1	10	0.25	1676118	1672536	1673746
872.0876	1	10	1	4902.4	1	8	8	0	1	1	11	0.25	1685983	1678803	1683706
879.2667	1	30	-99	-99	1	8	8	0	1	1	11	0.25	1685983	1678803	1683706
882.7816	1	10	1	760.4	1	7	3	0	1	1	12	0.25	1692084	1689498	1690258
885.3681	1	30	-99	-99	1	7	3	0	1	1	12	0.25	1692084	1689498	1690258
888.0872	1	10	2	414.8	1	5	6	1	2	1	13	0.25	1696925	1694803	1695218
890.2094	1	31	-99	-99	1	5	6	1	2	1	13	0.25	1696925	1694803	1695218
893.0446	1	10	2	1569.4	1	7	6	1	2	1	14	0.25	1703093	1699760	1701330
896.3772	1	31	-99	-99	1	7	6	1	2	1	14	0.25	1703093	1699760	1701330
899.4942	1	10	1	1639.7	1	2	4	0	1	1	15	0.25	1710239	1706210	1707850
903.5231	1	30	-99	-99	1	2	4	0	1	1	15	0.25	1710239	1706210	1707850
906.6235	1	10	1	1470.4	1	7	7	1	1	1	16	0.25	1717004	1713339	1714810
910.2877	1	31	-99	-99	1	7	7	1	1	1	16	0.25	1717004	1713339	1714810
913.5042	1	10	2	1501.7	1	7	7	0	2	1	17	0.25	1723785	1720220	1721722
917.0689	1	30	-99	-99	1	7	7	0	2	1	17	0.25	1723785	1720220	1721722
919.7548	1	10	2	3603.1	1	8	6	0	2	0	18	0.75	1732042	1726471	1730074
925.3257	1	30	-99	-99	1	8	6	0	2	0	18	0.75	1732042	1726471	1730074
927.8956	1	10	2	3486.3	1	3	7	0	2	0	19	0.75	1740398	1734611	1738098
933.682	1	30	-99	-99	1	3	7	0	2	0	19	0.75	1740398	1734611	1738098
936.6166	1	10	2	5341.2	1	5	4	0	2	0	20	0.75	1751191	1743333	1748674
944.4755	1	30	-99	-99	1	5	4	0	2	0	20	0.75	1751191	1743333	1748674
947.6257	1	10	1	1700.2	1	5	8	1	1	0	21	0.75	1758006	1754342	1756042
951.2898	1	31	-99	-99	1	5	8	1	1	0	21	0.75	1758006	1754342	1756042
953.8763	1	10	1	2609.5	1	2	3	0	1	0	22	0.75	1765317	1760592	1763202
958.6016	1	30	-99	-99	1	2	3	0	1	0	22	0.75	1765317	1760592	1763202
961.9673	1	10	1	1518.5	1	2	5	1	1	0	23	0.75	1772099	1768683	1770202
965.3827	1	31	-99	-99	1	2	5	1	1	0	23	0.75	1772099	1768683	1770202
967.9692	1	10	1	4060.6	1	3	5	1	1	0	24	0.75	1780670	1774685	1778746
973.9546	1	31	-99	-99	1	3	5	1	1	0	24	0.75	1780670	1774685	1778746
976.6737	1	10	2	6804.1	1	8	7	0	2	0	25	0.75	1792343	1783390	1790194
985.6268	1	30	-99	-99	1	8	7	0	2	0	25	0.75	1792343	1783390	1790194
988.5946	1	10	1	1499.2	1	4	4	1	1	0	26	0.75	1798345	1795311	1796810
991.6288	1	31	-99	-99	1	4	4	1	1	0	26	0.75	1798345	1795311	1796810
994.58	1	10	1	641.7	1	5	4	0	1	0	27	0.75	1803567	1801296	1801938
996.8514	1	30	-99	-99	1	5	4	0	1	0	27	0.75	1803567	1801296	1801938
999.4047	1	10	1	1409	1	7	7	1	1	0	28	0.75	1809221	1806121	1807530
1002.5052	1	31	-99	-99	1	7	7	1	1	0	28	0.75	1809221	1806121	1807530
1005.2574	1	10	2	2604.3	1	8	8	0	2	0	29	0.75	1816500	1811973	1814578
1009.7838	1	30	3	2709.9	1	8	8	0	2	0	29	0.75	1816500	1811973	1814578
1013.5142	1	10	1	1659.5	1	6	4	1	1	0	30	0.85	1823712	1820230	1821890
1016.996	1	31	-99	-99	1	6	4	1	1	0	30	0.85	1823712	1820230	1821890
1020.3286	1	10	1	2253.1	1	3	4	1	1	0	31	0.85	1831422	1827044	1829298
1024.7057	1	31	-99	-99	1	3	4	1	1	0	31	0.85	1831422	1827044	1829298
1027.8061	1	10	1	6263.5	1	8	5	1	1	0	32	0.85	1843144	1834522	1840786
1036.4277	1	31	-99	-99	1	8	5	1	1	0	32	0.85	1843144	1834522	1840786
1039.8431	1	10	1	1794.5	1	5	8	1	1	0	33	0.85	1850008	1846559	1848354
1043.2917	1	31	-99	-99	1	5	8	1	1	0	33	0.85	1850008	1846559	1848354
1045.8782	1	10	1	1295.4	1	2	5	1	1	0	34	0.85	1856275	1852594	1853890
1049.5589	1	31	-99	-99	1	2	5	1	1	0	34	0.85	1856275	1852594	1853890
1052.4604	1	10	2	1217.2	1	2	5	0	2	0	35	0.85	1862592	1859176	1860393
1055.8759	1	30	-99	-99	1	2	5	0	2	0	35	0.85	1862592	1859176	1860393
1058.8934	1	10	1	1912.2	1	5	6	1	1	0	36	0.85	1869191	1865609	1867521
1062.4746	1	31	-99	-99	1	5	6	1	1	0	36	0.85	1869191	1865609	1867521
1065.6249	1	10	1	2356.6	1	2	5	1	1	0	37	0.85	1876652	1872341	1874697
1069.9357	1	31	-99	-99	1	2	5	1	1	0	37	0.85	1876652	1872341	1874697
1073.3345	1	10	2	5015.1	1	6	8	0	2	0	38	0.85	1886981	1880050	1885065
1080.2649	1	30	-99	-99	1	6	8	0	2	0	38	0.85	1886981	1880050	1885065
1083.5312	1	10	1	954.3	1	7	8	1	1	0	39	0.85	1893613	1890247	1891201
1086.8969	1	31	-99	-99	1	7	8	1	1	0	39	0.85	1893613	1890247	1891201
1089.4502	1	10	1	1547.3	1	4	2	1	1	0	40	0.85	1899847	1896166	1897713
1093.131	1	31	-99	-99	1	4	2	1	1	0	40	0.85	1899847	1896166	1897713
1096.0988	1	10	1	2386.7	1	2	4	0	1	0	41	0.85	1906976	1902815	1905201
1100.2603	1	30	-99	-99	1	2	4	0	1	0	41	0.85	1906976	1902815	1905201
1103.1784	1	10	1	1259.1	1	2	8	1	1	0	42	0.85	1913078	1909894	1911153
1106.3617	1	31	-99	-99	1	2	8	1	1	0	42	0.85	1913078	1909894	1911153
1108.9813	1	10	1	5296.1	1	8	3	1	1	0	43	0.85	1922545	1915697	1920993
1115.8288	1	31	-99	-99	1	8	3	1	1	0	43	0.85	1922545	1915697	1920993
1119.2277	1	10	2	2953.8	1	2	7	1	2	0	44	0.85	1931249	1925944	1928897
1124.5333	1	31	-99	-99	1	2	7	1	2	0	44	0.85	1931249	1925944	1928897
1127.07	1	10	1	2959.4	1	4	7	1	1	0	45	0.85	1938428	1933786	1936745
1131.7124	1	31	-99	-99	1	4	7	1	1	0	45	0.85	1938428	1933786	1936745
1134.2491	1	10	1	6828.3	1	6	2	1	1	0	46	0.85	1949819	1940965	1947793
1143.1028	1	31	-99	-99	1	6	2	1	1	0	46	0.85	1949819	1940965	1947793
1145.8717	1	10	1	7261.7	1	3	6	1	1	0	47	0.85	1961640	1952588	1959849
1154.9243	1	31	-99	-99	1	3	6	1	1	0	47	0.85	1961640	1952588	1959849
1158.1739	1	10	2	3543.5	1	2	7	0	2	0	48	0.85	1970776	1964890	1968433
1164.0598	1	30	-99	-99	1	2	7	0	2	0	48	0.85	1970776	1964890	1968433
1167.4919	1	10	1	953.4	1	8	6	1	1	0	49	0.85	1976993	1974208	1975161
1170.2773	1	31	-99	-99	1	8	6	1	1	0	49	0.85	1976993	1974208	1975161
1173.2285	1	10	1	3472.8	1	6	8	1	1	0	50	0.85	1985830	1979944	1983417
1179.1144	1	31	-99	-99	1	6	8	1	1	0	50	0.85	1985830	1979944	1983417
1182.364	1	10	2	3089.3	1	6	6	1	2	0	51	0.85	1994037	1989080	1992169
1187.3214	1	31	-99	-99	1	6	6	1	2	0	51	0.85	1994037	1989080	1992169
1189.9742	1	10	1	1455.1	1	4	4	0	1	1	52	0.15	2000305	1996690	1998145
1193.5886	1	30	-99	-99	1	4	4	0	1	1	52	0.15	2000305	1996690	1998145
1196.8217	1	10	1	3367.6	1	2	8	1	1	1	53	0.15	2009142	2003538	2006905
1202.4257	1	31	-99	-99	1	2	8	1	1	1	53	0.15	2009142	2003538	2006905
1205.0951	1	10	2	3638.2	1	6	6	1	2	1	54	0.15	2017034	2011811	2015449
1210.3178	1	31	-99	-99	1	6	6	1	2	1	54	0.15	2017034	2011811	2015449
1213.6172	1	10	1	3108	1	4	2	1	1	1	55	0.15	2025440	2020333	2023441
1218.7238	1	31	-99	-99	1	4	2	1	1	1	55	0.15	2025440	2020333	2023441
1221.4429	1	10	2	1650.4	1	8	6	1	2	1	56	0.15	2031840	2028159	2029809
1225.1236	1	31	-99	-99	1	8	6	1	2	1	56	0.15	2031840	2028159	2029809
1227.9422	1	10	1	1999	1	7	5	0	1	1	57	0.15	2038554	2034658	2036657
1231.8385	1	30	-99	-99	1	7	5	0	1	1	57	0.15	2038554	2034658	2036657
1235.0218	1	10	2	2607.4	1	3	7	1	2	1	58	0.15	2046629	2041738	2044345
1239.9129	1	31	-99	-99	1	3	7	1	2	1	58	0.15	2046629	2041738	2044345
1242.4994	1	10	1	3121.7	1	5	6	0	1	1	59	0.15	2054272	2049215	2052337
1247.5563	1	30	-99	-99	1	5	6	0	1	1	59	0.15	2054272	2049215	2052337
1250.8225	1	10	2	1806.7	1	3	7	1	2	1	60	0.15	2061435	2057538	2059345
1254.7188	1	31	-99	-99	1	3	7	1	2	1	60	0.15	2061435	2057538	2059345
1257.9187	1	10	2	566.4	1	3	6	1	2	1	61	0.15	2067470	2064635	2065201
1260.7538	1	31	-99	-99	1	3	6	1	2	1	61	0.15	2067470	2064635	2065201
1263.4398	1	10	2	2629.3	1	8	7	1	2	1	62	0.15	2075213	2070156	2072785
1268.4967	1	31	-99	-99	1	8	7	1	2	1	62	0.15	2075213	2070156	2072785
1271.5639	1	10	2	2225.2	1	3	8	1	2	1	63	0.15	2082922	2078280	2080505
1276.2063	1	31	-99	-99	1	3	8	1	2	1	63	0.15	2082922	2078280	2080505
1278.743	1	10	1	1206.1	1	8	4	0	1	1	64	0.15	2088559	2085459	2086665
1281.8435	1	30	3	2817.6	1	8	4	0	1	1	64	0.15	2088559	2085459	2086665
1285.69	1	10	1	1947.1	1	3	2	0	1	1	65	0.75	2095904	2092406	2094353
1289.1884	1	30	-99	-99	1	3	2	0	1	1	65	0.75	2095904	2092406	2094353
1291.8909	1	10	1	634.1	1	6	5	1	1	1	66	0.75	2101210	2098607	2099241
1294.494	1	31	-99	-99	1	6	5	1	1	1	66	0.75	2101210	2098607	2099241
1297.5944	1	10	2	858.7	1	3	7	1	2	1	67	0.75	2106748	2104310	2105169
1300.0317	1	31	-99	-99	1	3	7	1	2	1	67	0.75	2106748	2104310	2105169
1303.215	1	10	2	2310	1	4	7	0	2	1	68	0.75	2114606	2109931	2112241
1307.8905	1	30	-99	-99	1	4	7	0	2	1	68	0.75	2114606	2109931	2112241
1311.1899	1	10	2	3831.1	1	6	3	0	2	1	69	0.75	2124090	2117906	2121737
1317.3742	1	30	-99	-99	1	6	3	0	2	1	69	0.75	2124090	2117906	2121737
1320.0768	1	10	1	1176.2	1	2	6	0	1	1	70	0.75	2130308	2126793	2127969
1323.5917	1	30	-99	-99	1	2	6	0	1	1	70	0.75	2130308	2126793	2127969
1326.7916	1	10	1	709.4	1	3	5	1	1	1	71	0.75	2136276	2133508	2134217
1329.5605	1	31	-99	-99	1	3	5	1	1	1	71	0.75	2136276	2133508	2134217
1332.4122	1	10	1	632.8	1	4	8	1	1	1	72	0.75	2141864	2139128	2139761
1335.1479	1	31	-99	-99	1	4	8	1	1	1	72	0.75	2141864	2139128	2139761
1338.5965	1	10	2	2656.4	1	2	4	0	2	1	73	0.75	2150087	2145312	2147969
1343.3715	1	30	-99	-99	1	2	4	0	2	1	73	0.75	2150087	2145312	2147969
1346.4222	1	10	1	1638.7	1	3	6	1	1	1	74	0.75	2156305	2153138	2154777
1349.589	1	31	-99	-99	1	3	6	1	1	1	74	0.75	2156305	2153138	2154777
1352.2418	1	10	1	1411.1	1	2	8	0	1	1	75	0.75	2162274	2158958	2160369
1355.5578	1	30	-99	-99	1	2	8	0	1	1	75	0.75	2162274	2158958	2160369
1358.6748	1	10	1	1378.1	1	6	5	1	1	1	76	0.75	2169005	2165391	2166769
1362.2892	1	31	-99	-99	1	6	5	1	1	1	76	0.75	2169005	2165391	2166769
1365.1244	1	10	2	2480.5	1	2	3	0	2	1	77	0.75	2176400	2171840	2174321
1369.6839	1	30	-99	-99	1	2	3	0	2	1	77	0.75	2176400	2171840	2174321
1372.9501	1	10	2	1766.8	1	8	6	1	2	1	78	0.75	2183761	2179666	2181433
1377.0453	1	31	-99	-99	1	8	6	1	2	1	78	0.75	2183761	2179666	2181433
1379.7313	1	10	1	1561.6	1	5	3	0	1	1	79	0.75	2190277	2186447	2188009
1383.5612	1	30	-99	-99	1	5	3	0	1	1	79	0.75	2190277	2186447	2188009
1386.7446	1	10	2	2180.2	1	5	8	1	2	1	80	0.75	2197274	2193460	2195641
1390.558	1	31	-99	-99	1	5	8	1	2	1	80	0.75	2197274	2193460	2195641
1393.0947	1	10	1	1798.1	1	4	4	1	1	1	81	0.75	2203326	2199811	2201609
1396.6096	1	31	-99	-99	1	4	4	1	1	1	81	0.75	2203326	2199811	2201609
1399.8095	1	10	2	2235.3	1	7	5	0	2	0	82	0.25	2211118	2206525	2208761
1404.4022	1	30	-99	-99	1	7	5	0	2	0	82	0.25	2211118	2206525	2208761
1407.2705	1	10	1	2718.3	1	7	2	0	1	0	83	0.25	2218397	2213986	2216705
1411.6808	1	30	-99	-99	1	7	2	0	1	0	83	0.25	2218397	2213986	2216705
1414.5657	1	10	2	1623.1	1	7	6	1	2	0	84	0.25	2225377	2221282	2222905
1418.6609	1	31	-99	-99	1	7	6	1	2	0	84	0.25	2225377	2221282	2222905
1421.3469	1	10	1	2361.9	1	8	2	0	1	0	85	0.25	2232805	2228063	2230425
1426.0887	1	30	-99	-99	1	8	2	0	1	0	85	0.25	2232805	2228063	2230425
1429.1394	1	10	2	3449.4	1	6	3	1	2	0	86	0.25	2240879	2235855	2239305
1434.1631	1	31	-99	-99	1	6	3	1	2	0	86	0.25	2240879	2235855	2239305
1436.9486	1	10	2	6144.1	1	6	2	1	2	0	87	0.25	2251689	2243664	2249809
1444.9732	1	31	-99	-99	1	6	2	1	2	0	87	0.25	2251689	2243664	2249809
1448.1897	1	10	1	1271	1	7	2	0	1	0	88	0.25	2258122	2254906	2256177
1451.4062	1	30	-99	-99	1	7	2	0	1	0	88	0.25	2258122	2254906	2256177
1454.573	1	10	2	2199.7	1	8	7	0	2	0	89	0.25	2265368	2261289	2263489
1458.6517	1	30	-99	-99	1	8	7	0	2	0	89	0.25	2265368	2261289	2263489
1461.9345	1	10	1	1662.2	1	3	4	0	1	0	90	0.25	2272613	2268650	2270313
1465.8971	1	30	-99	-99	1	3	4	0	1	0	90	0.25	2272613	2268650	2270313
1469.3789	1	10	1	1409.8	1	6	4	0	1	0	91	0.25	2279311	2276095	2277505
1472.5954	1	30	-99	-99	1	6	4	0	1	0	91	0.25	2279311	2276095	2277505
1475.6461	1	10	1	1958.5	1	2	2	0	1	0	92	0.25	2285877	2282362	2284321
1479.161	1	30	-99	-99	1	2	2	0	1	0	92	0.25	2285877	2282362	2284321
1482.2946	1	10	2	1758	1	8	7	0	2	0	93	0.25	2293106	2289011	2290769
1486.3899	1	30	-99	-99	1	8	7	0	2	0	93	0.25	2293106	2289011	2290769
1489.5898	1	10	1	1262.8	1	2	3	0	1	0	94	0.25	2299738	2296306	2297568
1493.0218	1	30	-99	-99	1	2	3	0	1	0	94	0.25	2299738	2296306	2297568
1495.857	1	10	2	1243.6	1	5	7	0	2	0	95	0.25	2305391	2302573	2303816
1498.6756	1	30	-99	-99	1	5	7	0	2	0	95	0.25	2305391	2302573	2303816
1501.2123	1	10	1	976.3	1	6	3	0	1	0	96	0.25	2311178	2307928	2308904
1504.4619	1	30	3	3342.7	1	6	3	0	1	0	96	0.25	2311178	2307928	2308904
1508.8225	1	10	1	758	1	2	2	1	1	1	97	0.85	2318655	2315538	2316296
1511.9395	1	31	-99	-99	1	2	2	1	1	1	97	0.85	2318655	2315538	2316296
1514.6089	1	10	2	1147.6	1	3	4	0	2	1	98	0.85	2324492	2321325	2322472
1517.7756	1	30	-99	-99	1	3	4	0	2	1	98	0.85	2324492	2321325	2322472
1520.8761	1	10	2	1464.4	1	8	2	0	2	1	99	0.85	2331322	2327592	2329056
1524.6065	1	30	-99	-99	1	8	2	0	2	1	99	0.85	2331322	2327592	2329056
1527.4583	1	10	1	858.2	1	5	4	1	1	1	100	0.85	2337258	2334174	2335032
1530.5422	1	31	-99	-99	1	5	4	1	1	1	100	0.85	2337258	2334174	2335032
1533.2281	1	10	1	2736.4	1	8	3	1	1	1	101	0.85	2344669	2339944	2342680
1537.9534	1	31	-99	-99	1	8	3	1	1	1	101	0.85	2344669	2339944	2342680
1540.9212	1	10	2	6019.3	1	3	7	0	2	1	102	0.85	2355662	2347637	2353656
1548.9458	1	30	-99	-99	1	3	7	0	2	1	102	0.85	2355662	2347637	2353656
1552.2618	1	10	1	1942.6	1	3	6	1	1	1	103	0.85	2362857	2358978	2360920
1556.1415	1	31	-99	-99	1	3	6	1	1	1	103	0.85	2362857	2358978	2360920
1559.3415	1	10	2	1567	1	2	4	1	2	1	104	0.85	2369738	2366057	2367624
1563.0222	1	31	-99	-99	1	2	4	1	2	1	104	0.85	2369738	2366057	2367624
1566.2719	1	10	2	4684.5	1	5	4	0	2	1	105	0.85	2379587	2372988	2377672
1572.8707	1	30	-99	-99	1	5	4	0	2	1	105	0.85	2379587	2372988	2377672
1575.6063	1	10	1	1174.1	1	4	4	1	1	1	106	0.85	2385821	2382322	2383496
1579.1047	1	31	-99	-99	1	4	4	1	1	1	106	0.85	2385821	2382322	2383496
1582.0559	1	10	1	1716.5	1	6	6	1	1	1	107	0.85	2392005	2388772	2390488
1585.289	1	31	-99	-99	1	6	6	1	1	1	107	0.85	2392005	2388772	2390488
1588.29	1	10	1	1178.4	1	7	5	0	1	1	108	0.85	2398455	2395006	2396184
1591.7386	1	30	-99	-99	1	7	5	0	1	1	108	0.85	2398455	2395006	2396184
1594.4411	1	10	1	1083.3	1	5	6	1	1	1	109	0.85	2403793	2401157	2402240
1597.0773	1	31	-99	-99	1	5	6	1	1	1	109	0.85	2403793	2401157	2402240
1599.9457	1	10	1	3034.7	1	3	2	0	1	1	110	0.85	2411652	2406662	2409696
1604.9362	1	30	-99	-99	1	3	2	0	1	1	110	0.85	2411652	2406662	2409696
1607.7548	1	10	2	737.5	1	8	6	0	2	1	111	0.85	2417438	2414471	2415208
1610.7226	1	30	-99	-99	1	8	6	0	2	1	111	0.85	2417438	2414471	2415208
1613.6407	1	10	1	739.6	1	3	4	1	1	1	112	0.85	2423109	2420357	2421096
1616.3929	1	31	-99	-99	1	3	4	1	1	1	112	0.85	2423109	2420357	2421096
1619.4934	1	10	1	2982.9	1	2	2	1	1	1	113	0.85	2431316	2426209	2429192
1624.6	1	31	-99	-99	1	2	2	1	1	1	113	0.85	2431316	2426209	2429192
1627.3522	1	10	2	4052.1	1	4	4	0	2	1	114	0.85	2440567	2434068	2438120
1633.8516	1	30	-99	-99	1	4	4	0	2	1	114	0.85	2440567	2434068	2438120
1637.3002	1	10	1	1280.1	1	3	5	0	1	1	115	0.85	2446868	2444016	2445296
1640.1519	1	30	-99	-99	1	3	5	0	1	1	115	0.85	2446868	2444016	2445296
1643.269	1	10	1	943.2	1	8	8	1	1	1	116	0.85	2452969	2449985	2450928
1646.2533	1	31	-99	-99	1	8	8	1	1	1	116	0.85	2452969	2449985	2450928
1649.0056	1	10	2	5550.6	1	8	6	0	2	1	117	0.85	2463448	2455722	2461272
1656.7318	1	30	-99	-99	1	8	6	0	2	1	117	0.85	2463448	2455722	2461272
1660.0478	1	10	2	2796.4	1	2	3	1	2	0	118	0.15	2471539	2466764	2469560
1664.8228	1	31	-99	-99	1	2	3	1	2	0	118	0.15	2471539	2466764	2469560
1667.8901	1	10	1	2626.1	1	6	7	1	1	0	119	0.15	2478967	2474606	2477232
1672.2506	1	31	-99	-99	1	6	7	1	1	0	119	0.15	2478967	2474606	2477232
1675.434	1	10	1	3050.2	1	7	8	0	1	0	120	0.15	2486875	2482150	2485200
1680.1593	1	30	-99	-99	1	7	8	0	1	0	120	0.15	2486875	2482150	2485200
1683.3924	1	10	1	947.8	1	5	5	0	1	0	121	0.15	2492943	2490108	2491056
1686.2275	1	30	-99	-99	1	5	5	0	1	0	121	0.15	2492943	2490108	2491056
1689.5435	1	10	1	1516.7	1	3	8	0	1	0	122	0.15	2499725	2496259	2497776
1693.0087	1	30	-99	-99	1	3	8	0	1	0	122	0.15	2499725	2496259	2497776
1696.3413	1	10	1	1798.8	1	6	4	0	1	0	123	0.15	2507318	2503057	2504856
1700.6023	1	30	-99	-99	1	6	4	0	1	0	123	0.15	2507318	2503057	2504856
1703.2882	1	10	2	595.9	1	8	5	1	2	0	124	0.15	2512524	2510004	2510600
1705.8084	1	31	-99	-99	1	8	5	1	2	0	124	0.15	2512524	2510004	2510600
1708.3783	1	10	2	1337.8	1	4	7	0	2	0	125	0.15	2518924	2515094	2516432
1712.2082	1	30	-99	-99	1	4	7	0	2	0	125	0.15	2518924	2515094	2516432
1715.2589	1	10	2	2553.2	1	2	4	1	2	0	126	0.15	2526269	2521975	2524528
1719.5531	1	31	-99	-99	1	2	4	1	2	0	126	0.15	2526269	2521975	2524528
1722.2225	1	10	1	3261.6	1	8	2	0	1	0	127	0.15	2534476	2528938	2532200
1727.7602	1	30	-99	-99	1	8	2	0	1	0	127	0.15	2534476	2528938	2532200
1730.9269	1	10	2	1861.2	1	5	7	1	2	0	128	0.15	2541125	2537643	2539504
1734.4087	1	31	-99	-99	1	5	7	1	2	0	128	0.15	2541125	2537643	2539504
1737.1942	1	10	1	3097.9	1	4	4	1	1	0	129	0.15	2549033	2543910	2547008
1742.3173	1	31	3	3286.7	1	4	4	1	1	0	129	0.15	2549033	2543910	2547008
